"Time (s)","Linear Acceleration x (m/s^2)","Linear Acceleration y (m/s^2)","Linear Acceleration z (m/s^2)","Absolute acceleration (m/s^2)"
2.217125002E-3,-1.801335646E-1,2.601934952E-1,-1.691318237E0,1.720670258E0
1.215812500E-2,-2.084693179E-1,-7.778083205E-2,-2.122890115E0,2.134519092E0
2.210012500E-2,-3.795228875E-1,-3.212565529E-1,-2.296696846E0,2.349906338E0
3.204212501E-2,-5.686291507E-1,-4.408955553E-1,-2.072601721E0,2.193947560E0
4.198312500E-2,-6.937313528E-1,-6.158419088E-1,-1.587681602E0,1.838819544E0
5.192512501E-2,4.120386690E-3,-4.498064196E-1,-9.957100743E-1,1.092603013E0
6.186612500E-2,5.988301657E-1,-7.048233747E-3,1.102106595E-1,6.089282671E-1
7.180812501E-2,8.627454136E-1,4.125213566E-1,1.155582306E0,1.499957994E0
8.174912501E-2,1.054107679E0,5.733560398E-1,1.538890681E0,1.951426318E0
9.169112501E-2,1.239524934E0,2.910977840E-1,1.267657642E0,1.796695823E0
1.016321250E-1,1.635122109E0,-2.272599301E-1,2.865270156E-1,1.675520552E0
1.115741250E-1,1.952583235E0,-5.094912887E-1,-5.727061218E-1,2.097654634E0
1.215151250E-1,8.549630620E-1,-7.040296152E-1,-7.721277505E-1,1.350111403E0
1.314571250E-1,-1.502865985E-2,-7.062275836E-1,-1.314192123E0,1.492006769E0
1.413991250E-1,8.334665045E-2,-1.790838432E-1,-1.225268252E0,1.241088223E0
1.513401250E-1,5.375355582E-1,-3.814153388E-1,-1.736991423E-1,6.816109807E-1
1.612821250E-1,9.816048360E-1,-6.382522398E-1,1.142499745E0,1.635915537E0
1.712231250E-1,1.080342381E0,-6.579246122E-1,1.050743483E0,1.644404550E0
1.811651250E-1,7.669196355E-1,-2.140222724E-1,8.688442057E-1,1.178499688E0
1.911061250E-1,3.414759323E-1,5.749708946E-1,7.314252824E-1,9.910500924E-1
2.010481250E-1,2.196298984E-1,1.081727441E0,4.129011333E-1,1.178498576E0
2.109891250E-1,3.282378361E-1,8.724202166E-1,1.838516629E-1,9.500834413E-1
2.209311250E-1,6.846463877E-1,-7.606204301E-3,2.965333557E-1,7.461437942E-1
2.308721250E-1,7.323093814E-1,-6.199777906E-1,5.205676693E-1,1.091622732E0
2.408141250E-1,2.885510293E-1,-4.718185553E-1,5.998190761E-1,8.158782811E-1
2.507551250E-1,-1.849103013E-1,-1.265904647E-1,4.650401706E-1,5.162163553E-1
2.606971250E-1,-4.573151216E-1,-3.062844649E-2,4.479201078E-2,4.605231225E-1
2.706391250E-1,-3.420857969E-1,-2.342222098E-1,-3.240532762E-1,5.262064821E-1
2.805801250E-1,5.025708166E-1,-7.540928909E-1,-3.265909678E-1,9.632731565E-1
2.905221250E-1,1.236680263E0,-1.173788343E0,-2.420408142E-1,1.722132661E0
3.004631250E-1,1.276712641E0,-9.667540777E-1,-2.585170984E-1,1.622171293E0
3.104051250E-1,1.131742038E0,-3.430391854E-1,-4.727239966E-1,1.273571317E0
3.203461250E-1,1.613515186E0,2.533706716E-1,-2.265568609E0,2.792924824E0
3.302881250E-1,3.318097832E0,1.020366906E0,-8.914370869E0,9.566448130E0
3.402291250E-1,3.555729260E0,5.916826755E-1,-8.832426234E0,9.539656815E0
3.501711250E-1,3.547356048E0,-3.180717207E-1,-4.657770367E0,5.863423005E0
3.601121250E-1,3.010285489E0,-4.892108059E-1,-2.893016363E0,4.203651938E0
3.700541250E-1,2.441130966E0,-8.396005261E-1,-1.873090045E0,3.189438157E0
3.799961250E-1,1.577788406E0,-1.278159826E0,-4.539135039E-1,2.080660055E0
3.899371250E-1,1.083697806E0,-1.424282623E0,3.902735782E-1,1.831746541E0
3.998791250E-1,1.405266600E0,-9.430836716E-1,4.886301774E-1,1.761516528E0
4.098201250E-1,2.937550804E0,-6.664157926E-1,7.838724679E-1,3.112518399E0
4.197621250E-1,4.355938849E0,-4.988201201E-1,-4.862953842E-2,4.384676681E0
4.297031250E-1,4.605487780E0,1.861871870E-1,-2.058495898E0,5.048028202E0
4.396451250E-1,4.776907386E0,-1.683483553E-1,-3.839503407E0,6.130984566E0
4.495861250E-1,3.792480683E0,-1.838131882E0,-3.552030312E0,5.511674690E0
4.595281250E-1,3.343805115E0,-3.047296318E0,-3.207637496E0,5.545807949E0
4.694691250E-1,2.124377646E0,-3.158204258E0,-3.022138672E0,4.860098422E0
4.794111250E-1,1.131176612E0,-3.108028423E0,-2.739187229E0,4.294478768E0
4.893531250E-1,1.414343233E0,-1.961011850E0,-2.798576229E0,3.698373043E0
4.992941250E-1,3.506960558E0,-4.171614512E-1,-4.486611840E0,5.709858302E0
5.092361250E-1,5.103423509E0,-5.971001208E-1,-4.970861868E0,7.149190708E0
5.191771250E-1,4.830167334E0,-2.000429831E0,-3.055454938E0,6.055414177E0
5.291191250E-1,4.961472993E0,-1.680537726E0,-2.266236361E0,5.707560648E0
5.390601250E-1,5.044272491E0,-1.200209206E0,-2.049893475E0,5.575594171E0
5.490021250E-1,2.956353403E0,-2.976027530E0,-5.538237083E-1,4.231251116E0
5.589431250E-1,1.132687533E-1,-4.437368928E0,2.267840837E0,4.984593752E0
5.688851250E-1,-4.039315045E-1,-5.939611600E0,4.244545298E0,7.311519090E0
5.788261250E-1,-1.387529072E0,-5.447100041E0,1.272033699E0,5.763176686E0
5.887681250E-1,2.808979595E0,-2.344738885E0,-3.694103034E0,5.199477285E0
5.987101250E-1,3.969991626E0,-9.328453432E-1,-2.960611930E0,5.039469907E0
6.086511250E-1,1.361981417E0,-1.748779702E0,-1.404305903E0,2.623985308E0
6.185931250E-1,7.203611809E-1,-3.096713769E0,-1.590257885E0,3.554922860E0
6.285341250E-1,6.248533452E-1,-3.396487359E0,-1.521958314E0,3.773980020E0
6.384761250E-1,7.193420112E-2,-2.596877110E0,-1.028345139E0,2.794000533E0
6.484171250E-1,-3.387981999E-1,-1.572986088E0,-3.603861201E-1,1.648923166E0
6.583591250E-1,-6.312548769E-1,-1.540322664E0,-3.986333424E-1,1.711719945E0
6.683001250E-1,-1.293399425E0,-4.619785684E0,-7.225132486E0,8.672821991E0
6.782421250E-1,-1.792493779E0,-7.386727892E0,-4.400796348E0,8.783153841E0
6.881831250E-1,-3.692326065E0,-7.817168918E0,-1.649887206E0,8.801336800E0
6.981251250E-1,-5.347688019E-1,-6.031052113E0,-3.459935496E0,6.973573036E0
7.080661250E-1,8.316027045E-2,-4.566027553E0,-1.717831852E0,4.879187383E0
7.180081250E-1,-1.152017258E0,-5.837906885E0,6.665238199E-1,5.987700274E0
7.279501250E-1,-2.809781833E0,-7.079260243E0,2.250999978E0,7.942153388E0
7.378907083E-1,-4.142373390E0,-6.522980120E0,1.796971869E0,7.933324325E0
7.478327084E-1,-5.934033941E0,-5.388661798E0,6.656593090E-1,8.043229271E0
7.577737083E-1,-7.281590277E0,-5.369912117E0,8.432515275E-1,9.086725826E0
7.677157084E-1,-8.295566468E0,-6.012980708E0,2.053458814E0,1.044935659E1
7.776567083E-1,-8.439752959E0,-5.785649734E0,2.677564301E0,1.057698083E1
7.875987084E-1,-9.861487073E0,-5.947824014E0,2.557635861E0,1.179690803E1
7.975397084E-1,-1.097672301E1,-6.279277527E0,3.328632760E0,1.307660393E1
8.074817084E-1,-1.162412088E1,-5.828605719E0,5.063374175E0,1.395459024E1
8.174227084E-1,-1.215890839E1,-4.289711530E0,5.119038498E0,1.387246313E1
8.273647084E-1,-1.229902171E1,-3.452209570E0,5.408536484E0,1.387212863E1
8.373067083E-1,-1.104963194E1,-2.104389524E0,4.137427815E0,1.198503776E1
8.472477084E-1,-1.072681067E1,-2.250857014E0,2.925322230E0,1.134408809E1
8.571897083E-1,-8.671944723E0,-2.444775828E0,2.801218586E0,9.435379150E0
8.671307084E-1,-1.027341523E1,-3.422237912E0,4.334736260E0,1.166382061E1
8.770727083E-1,-9.852665963E0,-3.937903275E0,2.512350930E0,1.090385326E1
8.870137084E-1,-7.478430945E0,-3.659309762E0,2.875723808E0,8.808363341E0
8.969557083E-1,-5.229974797E0,-3.045045140E0,4.250179675E0,7.395198682E0
9.068967084E-1,-3.230011282E0,-3.335757592E0,5.829585128E0,7.452805804E0
9.168387083E-1,-1.284060836E0,-3.000485263E0,5.688134549E0,6.557941651E0
9.267807083E-1,-1.330711677E0,-2.417136040E0,5.809047368E0,6.431047467E0
9.367217083E-1,-2.616599184E0,-2.974372183E0,4.951285390E0,6.341033684E0
9.466637083E-1,-3.311910308E0,-2.967233317E0,3.451009429E0,5.628737827E0
9.566047083E-1,-3.568852167E0,-3.666303617E0,-2.421653599E-1,5.122219447E0
9.665467083E-1,-1.872055965E0,-3.491516892E0,-2.567620566E0,4.721012510E0
9.764877083E-1,-2.040413384E0,-1.064911872E0,4.554370836E0,5.102902878E0
9.864297083E-1,-3.541472287E0,-1.280048477E0,3.365642712E0,5.050554516E0
9.963707083E-1,-3.094310271E0,9.643508720E-1,5.647772389E0,6.511686541E0
1.006312708E0,-4.681010125E0,7.349809742E-1,1.209624612E0,4.890321516E0
1.016253708E0,-6.377517766E0,-3.080570483E-1,-6.652678379E0,9.220941472E0
1.026195708E0,-3.900645987E0,2.084638799E0,4.090455378E0,6.024332597E0
1.036136708E0,-8.293323476E0,3.294561034E0,5.011470780E0,1.023465613E1
1.046078708E0,-9.704289358E0,2.641750397E0,1.562269018E0,1.017805294E1
1.056020708E0,-4.881085473E0,4.111736904E0,3.302688372E0,7.186036894E0
1.065961708E0,-3.349796757E0,3.799217260E0,1.690123943E0,5.339635666E0
1.075903708E0,-1.819074637E-1,1.643413169E0,1.014116232E0,1.939672369E0
1.085844708E0,2.048305956E0,1.862455714E0,2.944895492E0,4.041869374E0
1.095786708E0,1.000487834E0,2.894484599E0,-3.386751160E-1,3.081187731E0
1.105727708E0,5.920875952E0,4.048336714E0,3.215983227E-1,7.179779082E0
1.115669708E0,5.918825333E0,4.438067086E0,2.295013433E0,7.745709744E0
1.125610708E0,4.072847657E0,3.974292253E0,1.264931963E0,5.829505967E0
1.135552708E0,-1.753943086E0,4.029031547E0,-9.835955206E-1,4.502984755E0
1.145493708E0,-4.105272222E0,4.912454615E0,-8.091631958E0,1.031794447E1
1.155435708E0,3.155173354E0,3.912628101E0,-6.645671661E0,8.332390376E0
1.165377708E0,7.726877968E0,3.095715356E0,-3.220820628E0,8.925344936E0
1.175318708E0,1.201784899E1,2.184485854E0,3.701255348E-1,1.222037911E1
1.185260708E0,1.352000454E1,1.286817214E0,3.480628792E0,1.402002846E1
1.195201708E0,1.146714652E1,1.605661498E0,1.792523892E-1,1.158040283E1
1.205143708E0,8.637109351E0,-4.177163154E-2,-1.464154494E0,8.760430994E0
1.215084708E0,6.968164315E0,-4.167988873E0,1.633141365E0,8.282185453E0
1.225026708E0,5.708003973E0,-6.155081497E0,3.204283533E0,8.985197301E0
1.234967708E0,6.946674628E0,-3.971536168E0,2.629579418E0,8.422830631E0
1.244909708E0,9.792178856E0,3.465719854E0,7.336852312E-1,1.041327397E1
1.254850708E0,9.770484517E0,7.307993964E0,6.398372738E-1,1.221795954E1
1.264792708E0,6.515512056E0,6.609757478E0,3.313321241E0,9.854891623E0
1.274734708E0,3.710788649E0,3.866376041E0,3.633061026E0,6.474407193E0
1.284675708E0,1.150280051E0,8.483070302E-1,3.626350762E0,3.897844130E0
1.294617708E0,-2.016974235E0,-1.331355456E0,2.917998008E0,3.788852701E0
1.304558708E0,-3.289209078E0,-6.299509478E-1,-8.878681219E-1,3.464685319E0
1.314500708E0,-3.150894361E0,2.253142691E-1,-2.953492945E0,4.324583491E0
1.324441708E0,-2.242406033E0,1.662824755E0,-1.873021633E0,3.361782418E0
1.334383708E0,-9.233232987E-1,2.725935684E0,-9.422027886E-1,3.028365461E0
1.344324708E0,-1.804986355E0,1.496066258E0,-1.385465004E0,2.723178890E0
1.354266708E0,-3.480341109E0,-2.451965564E-1,-1.190549825E0,3.686503014E0
1.364207708E0,-4.503801484E0,-7.221293789E-1,-5.975094259E-1,4.600295226E0
1.374149708E0,-4.360155861E0,3.858209234E-1,-6.878576785E-1,4.430910189E0
1.384091708E0,-3.120473637E0,1.091672823E0,-2.451690014E-1,3.314998207E0
1.394032708E0,-1.685230701E0,9.027153718E-1,7.288530191E-1,2.046002024E0
1.403974708E0,-2.580295576E0,6.869425893E-1,1.084021596E0,2.881825498E0
1.413915708E0,-1.928639471E0,1.208267473E0,4.429493167E-1,2.318569514E0
1.423857708E0,-9.561805576E-1,1.700494857E0,-5.274128585E-1,2.020922646E0
1.433798708E0,1.863899392E-1,2.701889595E0,-1.108058330E0,2.926216303E0
1.443740708E0,1.632727090E0,4.077989699E0,-2.076676792E0,4.858845977E0
1.453681708E0,1.723205443E0,4.509150517E0,-2.316107409E0,5.354085255E0
1.463623708E0,2.422476887E0,4.855072964E0,-1.987979062E0,5.778597452E0
1.473564708E0,3.266199407E0,5.438585325E0,-1.862058835E0,6.611620982E0
1.483506708E0,3.446494501E0,5.647337356E0,-1.850392324E0,6.869839541E0
1.493448708E0,3.606878072E0,5.652822044E0,-1.832446049E0,6.951390150E0
1.503389708E0,3.518106228E0,5.898962342E0,-1.869164810E0,7.118188339E0
1.513331708E0,2.921506045E0,6.295329303E0,-1.906431454E0,7.197280701E0
1.523272708E0,2.216445711E0,6.537019284E0,-2.094207183E0,7.213248675E0
1.533214708E0,1.831426295E0,6.305811022E0,-2.450930607E0,7.008882633E0
1.543155708E0,1.498450460E0,6.236169514E0,-2.264247723E0,6.801616112E0
1.553097708E0,1.027115762E0,6.093656496E0,-1.655120756E0,6.397424560E0
1.563038708E0,3.626668265E-1,5.654215436E0,-9.687829153E-1,5.748062261E0
1.572980708E0,-1.229613903E-1,5.327259017E0,-5.540330386E-1,5.357402425E0
1.582921708E0,4.184221474E-1,3.761240180E0,-1.637889889E-1,3.787985166E0
1.592863708E0,9.403859417E0,-1.227452655E1,-3.196214083E0,1.578962819E1
1.602805708E0,1.942040529E1,-3.450226545E1,-3.155211653E0,3.971792824E1
1.612746708E0,8.332836621E0,-5.078074777E1,-4.506307601E0,5.165682257E1
1.622688708E0,4.684495651E0,-3.744646717E1,-1.207515053E1,3.962312031E1
1.632629708E0,5.567148056E0,-1.638813632E1,-9.520148842E0,1.975341448E1
1.642571708E0,2.067080196E0,-2.844027806E0,-1.079080728E1,1.134913373E1
1.652512708E0,2.902528614E-1,5.517447892E0,-5.306469827E0,7.660620079E0
1.662454708E0,7.592833181E-1,6.840456448E0,-1.450062704E-1,6.883994653E0
1.672395708E0,1.049748872E0,6.349827692E0,9.373290174E0,1.137017384E1
1.682337708E0,1.903344855E0,3.079970559E0,2.039548581E1,2.071436172E1
1.692278708E0,2.266211071E0,8.374674618E-2,1.168911268E1,1.190706015E1
1.702220708E0,1.108648752E0,-6.675017667E-1,4.426485213E0,4.611771027E0
1.712162708E0,1.427956282E0,-1.423706380E0,1.643762101E0,2.601528944E0
1.722103708E0,1.963247679E0,-1.836140905E0,5.232464249E-1,2.738529111E0
1.732045708E0,2.437772033E0,-1.149626917E0,3.184627533E-2,2.695438502E0
1.741987208E0,1.537461036E0,5.798695457E-1,1.811898641E-1,1.653137894E0
1.751929208E0,1.221392864E0,9.888255626E-1,-1.053736965E-1,1.575017504E0
1.761870208E0,6.220624691E-1,1.450449205E0,-4.451089127E-1,1.639782472E0
1.771812208E0,3.798237267E-1,1.311657940E0,-5.624458663E-1,1.476840536E0
1.781753208E0,1.841595188E-1,6.903713965E-1,-7.540792961E-1,1.038827694E0
1.791695208E0,-5.485243767E-2,3.521777987E-3,-9.507911789E-1,9.523786321E-1
1.801637208E0,-1.360483360E-1,-2.990125751E-1,-1.256248555E0,1.298490702E0
1.811578208E0,-2.738626774E-1,-3.529069465E-1,-1.917762773E0,1.969100844E0
1.821520208E0,-6.168140084E-1,-1.410225624E-1,-2.274432257E0,2.360802612E0
1.831461208E0,-7.111214107E-1,4.199353337E-2,-2.091096611E0,2.209104378E0
1.841403208E0,-6.418453538E-1,1.374668705E-1,-1.530029225E0,1.664887993E0
1.851344208E0,-6.472815102E-1,1.613691187E-1,-1.007737066E0,1.208531067E0
1.861286208E0,-6.374105331E-1,1.712707937E-1,-6.190682562E-1,9.049151222E-1
1.871227208E0,-7.089841072E-1,1.028700650E-1,-3.811054364E-1,8.114690803E-1
1.881169208E0,-6.060919690E-1,-9.647847354E-2,-2.867885323E-1,6.774239684E-1
1.891110208E0,-4.667738700E-1,-2.867667514E-1,-2.063308449E-1,5.853934002E-1
1.901052208E0,-3.951004547E-1,-3.150625974E-1,-1.608512016E-1,5.303224666E-1
1.910994208E0,-3.494062185E-1,-2.488686079E-1,-9.330299690E-2,4.390053972E-1
1.920935208E0,-2.427439418E-1,-1.955460942E-1,3.030714199E-2,3.131795317E-1
1.930877208E0,-1.092306662E-1,-1.114023221E-1,1.946678424E-1,2.494742164E-1
1.940818208E0,-1.267574027E-2,4.914233923E-2,3.178521578E-1,3.218782971E-1
1.950760208E0,2.117189080E-2,1.362196594E-1,4.709895663E-1,4.907496471E-1
1.960701208E0,6.595659256E-2,2.051787972E-1,6.715549104E-1,7.052904427E-1
1.970643208E0,1.622276361E-1,2.158429492E-1,9.263523026E-1,9.649013282E-1
1.980584208E0,1.761616972E-1,1.840194780E-1,1.316732154E0,1.341148641E0
1.990526208E0,1.527592398E-1,1.634197372E-1,1.928760362E0,1.941689453E0
2.000467208E0,8.679577678E-2,1.014497763E-1,2.370996830E0,2.374752942E0
2.010409208E0,-1.850161359E-2,2.157271743E-2,2.312328061E0,2.312502704E0
2.020351208E0,-1.119233090E-1,-2.699542522E-2,1.825903015E0,1.829529284E0
2.030292208E0,-2.063223664E-1,-3.253390789E-2,1.192649414E0,1.210801387E0
2.040234208E0,-2.744031063E-1,-1.005212384E-1,6.909432542E-1,7.502027490E-1
2.050175208E0,-3.711142990E-1,-1.927768528E-1,3.667256713E-1,5.562161953E-1
2.060117208E0,-4.765587468E-1,-2.100793487E-1,1.630156946E-1,5.457249203E-1
2.070058208E0,-5.501577964E-1,-1.769098485E-1,3.739996076E-2,5.791109156E-1
2.080000208E0,-6.065802115E-1,-1.667953348E-1,-5.459662199E-2,6.314594428E-1
2.089941208E0,-6.223090754E-1,-1.810426605E-1,-1.155281174E-1,6.583249777E-1
2.099883208E0,-6.149348594E-1,-1.820764482E-1,-1.718927912E-1,6.639607263E-1
2.109825208E0,-5.763316879E-1,-1.519743973E-1,-1.998765421E-1,6.286533735E-1
2.119766208E0,-5.198338437E-1,-8.975709915E-2,-2.101417677E-1,5.678407562E-1
2.129708208E0,-3.838470496E-1,-1.717795014E-2,-2.110726444E-1,4.383894395E-1
2.139649208E0,-2.215575792E-1,4.270163119E-2,-2.001864445E-1,3.016385300E-1
2.149591208E0,-1.051434624E-1,9.579142570E-2,-1.453480402E-1,2.033646914E-1
2.159532208E0,1.000400126E-2,1.227424121E-1,-6.507249355E-2,1.392846337E-1
2.169474208E0,1.262516186E-1,1.189838219E-1,3.773105934E-2,1.775394432E-1
2.179415208E0,2.438826871E-1,1.228926855E-1,1.218265919E-1,2.990369471E-1
2.189357208E0,2.976823336E-1,1.485572845E-1,2.194097507E-1,3.985281385E-1
2.199298208E0,3.158757989E-1,1.569667500E-1,3.374637191E-1,4.881576002E-1
2.209240208E0,3.391047402E-1,1.329838103E-1,4.396496598E-1,5.709365481E-1
2.219182208E0,3.311091113E-1,1.033583075E-1,5.232348767E-1,6.277666123E-1
2.229123208E0,2.621226378E-1,8.393502653E-2,6.082552926E-1,6.676285396E-1
2.239065208E0,1.597215195E-1,7.942389965E-2,6.546962182E-1,6.785619042E-1
2.249006208E0,6.674932882E-2,6.674479723E-2,6.729420161E-1,6.795302038E-1
2.258948208E0,-2.888553768E-2,8.766964316E-2,6.386245613E-1,6.452609324E-1
2.268889208E0,-1.388392121E-1,1.030852425E-1,5.718707009E-1,5.974437150E-1
2.278831208E0,-2.449658838E-1,1.014889526E-1,5.038136423E-1,5.693298498E-1
2.288772208E0,-2.770562804E-1,7.484786868E-2,3.967990708E-1,4.897059205E-1
2.298714208E0,-2.581123249E-1,2.885367036E-2,2.756120181E-1,3.787036983E-1
2.308655208E0,-2.010224502E-1,-1.112783611E-2,1.742435181E-1,2.662605074E-1
2.318597208E0,-1.656732541E-1,-4.951246798E-2,5.898101047E-2,1.826961171E-1
2.328539208E0,-1.482337873E-1,-8.211537302E-2,-2.902894065E-2,1.719269309E-1
2.338480208E0,-1.104359235E-1,-7.138573229E-2,-7.715035602E-2,1.524604651E-1
2.348422208E0,-7.160500288E-2,-3.665911853E-2,-9.348279878E-2,1.233296440E-1
2.358363208E0,-3.223336101E-2,-1.781822026E-2,-6.551205799E-2,7.515522788E-2
2.368305208E0,-2.722799823E-2,-9.669540524E-3,-1.160789251E-2,3.113851425E-2
2.378246208E0,-5.910073221E-2,-3.290812969E-3,3.930147529E-2,7.105161474E-2
2.388188208E0,-1.047699715E-1,2.655571461E-2,1.122104073E-1,1.557983582E-1
2.398129208E0,-1.435963605E-1,4.155791581E-2,1.541092157E-1,2.147012471E-1
2.408071208E0,-1.633330522E-1,4.558080018E-2,1.997771394E-1,2.620423644E-1
2.418013208E0,-1.789331312E-1,3.117443025E-2,1.984591770E-1,2.690259383E-1
2.427954208E0,-1.667976737E-1,2.667499781E-3,2.074277826E-1,2.661857706E-1
2.437896208E0,-1.193036646E-1,-1.932621717E-2,2.220338349E-1,2.527961449E-1
2.447837208E0,-4.555171028E-2,-1.381755531E-2,2.394212615E-1,2.441074018E-1
2.457779208E0,3.227414533E-2,7.338255644E-4,2.634055169E-1,2.653763842E-1
2.467720208E0,7.565142229E-2,2.942435861E-2,2.883435993E-1,2.995512674E-1
2.477662208E0,1.351445027E-1,3.302916706E-2,2.850155103E-1,3.171573799E-1
2.487603208E0,1.432776873E-1,4.209410548E-2,3.068408275E-1,3.412502056E-1
2.497545208E0,1.274326099E-1,6.140687406E-2,3.162818880E-1,3.464738186E-1
2.507486208E0,1.125983700E-1,7.409357786E-2,3.090849888E-1,3.371969477E-1
2.517428208E0,7.202366352E-2,6.908251405E-2,2.559361374E-1,2.747054938E-1
2.527370208E0,3.426190630E-2,5.667823076E-2,2.117240243E-1,2.218408495E-1
2.537311208E0,-1.028993011E-2,2.917175889E-2,1.254941118E-1,1.292503241E-1
2.547253208E0,-7.510163784E-2,7.177457213E-3,3.737540245E-2,8.419437396E-2
2.557194208E0,-1.431494871E-1,1.924143255E-2,-2.047928810E-2,1.458814917E-1
2.567136208E0,-1.543045127E-1,4.484346628E-2,-8.016064882E-2,1.795732406E-1
2.577077208E0,-1.476923351E-1,9.053185523E-2,-1.053690188E-1,2.027601361E-1
2.587019208E0,-1.571673095E-1,1.215373009E-1,-1.202339566E-1,2.322263616E-1
2.596960208E0,-1.760986935E-1,1.630922931E-1,-1.155712406E-1,2.663954909E-1
2.606902208E0,-1.567968884E-1,1.834306633E-1,-9.048566222E-2,2.577202505E-1
2.616844208E0,-1.155113067E-1,1.744054860E-1,-9.433883116E-2,2.294775601E-1
2.626785208E0,-4.615075752E-2,1.381860781E-1,-1.094141226E-1,1.821997113E-1
2.636727208E0,5.068688124E-2,9.001730025E-2,-1.324382651E-1,1.679647830E-1
2.646668208E0,1.303204036E-1,9.407819152E-2,-1.289580023E-1,2.060686295E-1
2.656610208E0,2.019609283E-1,1.072057754E-1,-8.763704494E-2,2.448704688E-1
2.666551208E0,2.648113337E-1,1.458751667E-1,-1.853450418E-2,3.028995453E-1
2.676493208E0,3.281742476E-1,1.758403927E-1,4.957839534E-2,3.756011152E-1
2.686434208E0,3.666544814E-1,1.258385128E-1,9.562521860E-2,3.992681085E-1
2.696376208E0,3.715496242E-1,7.539399862E-2,1.107813478E-1,3.949758034E-1
2.706317208E0,3.268605244E-1,5.737814248E-2,1.108342651E-1,3.498775328E-1
2.716259208E0,2.347091366E-1,5.887561440E-2,1.329506274E-1,2.760988702E-1
2.726201208E0,9.784087479E-2,1.208005518E-1,1.816531098E-1,2.390888169E-1
2.736142208E0,-5.839716598E-2,1.593290251E-1,2.274822704E-1,2.838030138E-1
2.746083958E0,-2.078221773E-1,1.425831842E-1,2.332455786E-1,3.433999442E-1
2.756024958E0,-3.406770565E-1,4.332319021E-2,2.122587521E-1,4.037220993E-1
2.765966958E0,-4.147443219E-1,-9.331512988E-2,1.531676678E-1,4.518638074E-1
2.775907958E0,-4.553976734E-1,-1.808087718E-1,1.046666220E-1,5.010328878E-1
2.785849958E0,-5.282127576E-1,-2.132783604E-1,9.612690970E-2,5.776995404E-1
2.795790958E0,-6.373473832E-1,-1.822313994E-1,1.096925962E-1,6.719021026E-1
2.805732958E0,-7.433666123E-1,-1.251853788E-1,1.288140146E-1,7.647603218E-1
2.815674958E0,-7.791888481E-1,-1.131453770E-1,7.443505526E-2,7.908714907E-1
2.825615958E0,-7.794851558E-1,-1.006323355E-1,3.511940047E-2,7.867384237E-1
2.835557958E0,-7.634300172E-1,-7.931689560E-2,7.784982920E-3,7.675787693E-1
2.845498958E0,-7.120509718E-1,-8.445952177E-2,2.070981458E-2,7.173415461E-1
2.855440958E0,-6.284056748E-1,-6.519353092E-2,5.949322656E-2,6.345733469E-1
2.865381958E0,-5.357077186E-1,-4.501654387E-2,7.971406773E-2,5.434736255E-1
2.875323958E0,-4.537984599E-1,-4.404415190E-2,9.853742436E-2,4.664574509E-1
2.885264958E0,-4.005127837E-1,-1.537876189E-2,1.219297953E-1,4.189437566E-1
2.895206958E0,-3.317148829E-1,-1.111555696E-2,1.556087342E-1,3.665684074E-1
2.905147958E0,-2.845011015E-1,-2.182063937E-2,2.227077265E-1,3.619609765E-1
2.915089958E0,-2.426942405E-1,-7.202951074E-2,2.820790386E-1,3.790215414E-1
2.925031958E0,-2.082940476E-1,-1.195714670E-1,3.376674946E-1,4.143707071E-1
2.934972958E0,-1.678947575E-1,-1.511125177E-1,3.699651749E-1,4.334718829E-1
2.944914958E0,-1.236580861E-1,-1.507435584E-1,3.701357675E-1,4.183484540E-1
2.954855958E0,-1.016762097E-1,-1.262776387E-1,3.499981029E-1,3.857236909E-1
2.964797958E0,-1.092553706E-1,-8.248608649E-2,3.137988679E-1,3.423600736E-1
2.974738958E0,-7.911326632E-2,-2.175807416E-2,2.551422317E-1,2.680109720E-1
2.984680958E0,-1.141098753E-2,4.757119238E-2,1.823031740E-1,1.887529502E-1
2.994621958E0,4.944493264E-2,9.710178673E-2,1.308513308E-1,1.702810298E-1
3.004563958E0,1.014174704E-1,1.288632774E-1,8.888367131E-2,1.865249437E-1
3.014505958E0,1.649593091E-1,1.170559949E-1,4.897160053E-2,2.081151058E-1
3.024446958E0,2.220528384E-1,1.107912880E-1,4.089060232E-2,2.515039043E-1
3.034388958E0,2.295235334E-1,1.182336241E-1,2.271774843E-2,2.591839855E-1
3.044329958E0,2.195869213E-1,1.077688622E-1,4.307760715E-2,2.483711415E-1
3.054271958E0,2.198048763E-1,6.512862682E-2,5.500373438E-2,2.357569352E-1
3.064212958E0,2.036037035E-1,2.412561178E-3,1.080204387E-1,2.304966458E-1
3.074154958E0,2.168385838E-1,-7.291068614E-2,1.742366476E-1,2.875645127E-1
3.084095958E0,2.088504101E-1,-1.214215261E-1,2.177948959E-1,3.252634278E-1
3.094037958E0,1.752195646E-1,-1.005662620E-1,2.468824549E-1,3.190084880E-1
3.103978958E0,1.438282026E-1,-2.607331932E-2,2.776376398E-1,3.137658823E-1
3.113920958E0,1.203574790E-1,5.106841207E-2,3.032800193E-1,3.302615260E-1
3.123862958E0,6.155173883E-2,1.349104679E-1,2.956271835E-1,3.307338545E-1
3.133803958E0,-1.266989306E-2,1.939767015E-1,2.866692491E-1,3.463621591E-1
3.143745958E0,-5.950389773E-2,1.991316068E-1,2.583299875E-1,3.315546609E-1
3.153686958E0,-7.207658082E-2,1.828137821E-1,1.940375125E-1,2.761638439E-1
3.163628958E0,-7.310495988E-2,1.767882264E-1,9.443267897E-2,2.133446578E-1
3.173569958E0,-8.162610725E-2,1.556961501E-1,-3.115893513E-2,1.785356877E-1
3.183511958E0,-5.303994700E-2,1.029764843E-1,-1.753578512E-1,2.101612911E-1
3.193452958E0,-5.911725059E-2,7.095245361E-2,-2.648860319E-1,2.805239916E-1
3.203394958E0,-3.637538239E-2,6.654189885E-2,-2.693424873E-1,2.798148820E-1
3.213336958E0,-2.998744547E-3,7.977941036E-2,-2.595529327E-1,2.715538099E-1
3.223277958E0,3.501137316E-2,8.620783925E-2,-1.849158561E-1,2.070059459E-1
3.233219958E0,6.516970351E-2,9.352387547E-2,-1.358449991E-1,1.773349072E-1
3.243160958E0,7.824305445E-2,8.644815981E-2,-1.118958271E-1,1.616042574E-1
3.253102958E0,1.038491812E-1,6.124782979E-2,-3.702106118E-2,1.261210057E-1
3.263043958E0,1.176630820E-1,6.456963301E-2,7.020737216E-2,1.514691833E-1
3.272985958E0,1.026411465E-1,6.867320895E-2,2.019663370E-1,2.367311045E-1
3.282926958E0,2.516495436E-2,5.561169863E-2,3.192790246E-1,3.250615811E-1
3.292868958E0,-3.975989699E-2,6.259853661E-2,3.867278266E-1,3.937738413E-1
3.302810958E0,-9.187671483E-2,6.082683027E-2,4.113424118E-1,4.258448235E-1
3.312751958E0,-1.080489439E-1,2.840285003E-2,3.672123058E-1,3.838309181E-1
3.322693958E0,-1.254065497E-1,-1.815560460E-3,2.786839990E-1,3.056057432E-1
3.332634958E0,-1.585766347E-1,-1.702884614E-2,1.630497546E-1,2.280827770E-1
3.342576958E0,-1.366180010E-1,-1.230020285E-2,6.999950364E-2,1.539990380E-1
3.352517958E0,-8.156500384E-2,2.596923888E-2,-6.581479758E-3,8.585200694E-2
3.362459958E0,-4.203183264E-2,7.434968591E-2,-4.193623066E-2,9.514829579E-2
3.372400958E0,2.435920805E-2,1.134622961E-1,-5.200630546E-2,1.271680757E-1
3.382342958E0,9.153172910E-2,1.294567698E-1,-6.440444916E-2,1.711287403E-1
3.392283958E0,1.330874522E-1,1.545986277E-1,-4.787334725E-2,2.095348730E-1
3.402225958E0,1.401105429E-1,1.734652537E-1,-4.226118967E-2,2.269519038E-1
3.412167958E0,1.043239751E-1,1.517919642E-1,-4.555448771E-2,1.897353513E-1
3.422108958E0,3.746983498E-2,1.011539072E-1,-4.927185506E-2,1.185909658E-1
3.432050958E0,-3.336494341E-2,3.252864540E-2,-1.089672491E-2,4.785468456E-2
3.441991958E0,-8.316787183E-2,-4.952650130E-2,1.481567502E-2,9.792483578E-2
3.451933958E0,-1.403385843E-1,-9.727720320E-2,5.945931271E-2,1.808125615E-1
3.461874958E0,-1.858028787E-1,-1.137441319E-1,1.442543185E-1,2.612847981E-1
3.471816958E0,-2.192765804E-1,-8.443379402E-2,2.301616108E-1,3.289158728E-1
3.481757958E0,-2.207483245E-1,-4.198534727E-2,3.099983239E-1,3.828727635E-1
3.491699958E0,-2.191356625E-1,1.609796941E-2,3.310120475E-1,3.973015968E-1
3.501641958E0,-1.840595314E-1,7.465783417E-2,2.948670454E-1,3.555253546E-1
3.511582958E0,-1.358264342E-1,1.129576814E-1,2.254942171E-1,2.864540102E-1
3.521524958E0,-8.964761004E-2,1.133190393E-1,1.326606055E-1,1.961548748E-1
3.531465958E0,-5.184623793E-2,1.133897907E-1,3.970741823E-2,1.308508925E-1
3.541407958E0,-3.167261302E-2,1.125355124E-1,-4.006015152E-2,1.235807902E-1
3.551348958E0,8.829587996E-3,1.068011481E-1,-8.232996583E-2,1.351394470E-1
3.561290958E0,6.448163241E-2,1.172635710E-1,-1.275464845E-1,1.848694991E-1
3.571231958E0,1.077916664E-1,9.642175555E-2,-1.326242065E-1,1.962278738E-1
3.581173958E0,1.332897659E-1,8.578391612E-2,-1.160834567E-1,1.964698727E-1
3.591114958E0,1.797936952E-1,6.435211658E-2,-8.897474170E-2,2.106738532E-1
3.601056958E0,2.340087864E-1,8.106989086E-2,-8.060620666E-2,2.604415479E-1
3.610998958E0,2.320613712E-1,1.318161213E-1,-2.810639620E-2,2.683615832E-1
3.620939958E0,1.792097045E-1,1.529684240E-1,-7.518057525E-4,2.356183824E-1
3.630881958E0,9.938848659E-2,1.398466873E-1,2.049902245E-2,1.727870862E-1
3.640822958E0,-2.718326703E-2,1.314968634E-1,6.323281333E-2,1.484208333E-1
3.650764958E0,-1.055542293E-1,9.253628075E-2,8.602774501E-2,1.646372725E-1
3.660705958E0,-1.075531000E-1,4.779806435E-2,1.206081784E-1,1.685190107E-1
3.670647958E0,-1.113808335E-1,2.635690928E-2,1.285814416E-1,1.721440208E-1
3.680588958E0,-1.196774478E-1,-6.682782769E-3,1.174859114E-1,1.678400741E-1
3.690530958E0,-1.001721597E-1,-4.457507908E-2,9.499752000E-2,1.450721478E-1
3.700472958E0,-9.522249162E-2,-4.321267784E-2,1.002844262E-1,1.448848666E-1
3.710413958E0,-1.061743265E-1,2.302458107E-2,1.216361189E-1,1.630903565E-1
3.720355958E0,-1.057198517E-1,1.052147985E-1,1.113624148E-1,1.861408829E-1
3.730296958E0,-9.169311225E-2,1.270354378E-1,1.025168931E-1,1.872307204E-1
3.740238583E0,-3.088470072E-2,8.324680924E-2,7.873158932E-2,1.186699589E-1
3.750179583E0,2.134979233E-2,2.894196332E-2,5.601968810E-2,6.657068670E-2
3.760121583E0,7.060059741E-2,6.893282533E-3,4.573092744E-2,8.439952265E-2
3.770062583E0,1.036932068E-1,1.831581831E-2,5.213041261E-2,1.174960861E-1
3.780004583E0,9.778927311E-2,5.750151873E-2,5.918566301E-2,1.279535435E-1
3.789946583E0,3.911027133E-2,8.037348747E-2,6.676350832E-2,1.115655720E-1
3.799887583E0,-6.944723412E-2,7.555245817E-2,8.887314633E-2,1.357553992E-1
3.809829583E0,-1.943219796E-1,6.696523726E-2,9.212302878E-2,2.252377126E-1
3.819770583E0,-2.573581803E-1,1.568866432E-2,1.033283405E-1,2.777698924E-1
3.829712583E0,-2.726346159E-1,-3.335076392E-2,9.079790354E-2,2.892856141E-1
3.839653583E0,-2.677792342E-1,-6.015498519E-2,8.995473504E-2,2.888186193E-1
3.849595583E0,-2.341014647E-1,-5.705946922E-2,7.404913902E-2,2.520764841E-1
3.859536583E0,-1.692931192E-1,-4.331851244E-2,7.871492475E-2,1.916577499E-1
3.869478583E0,-9.435798079E-2,-2.919222414E-2,9.535529651E-2,1.372889182E-1
3.879420583E0,-4.027635232E-2,-1.501214147E-2,1.248311837E-1,1.320241394E-1
3.889361583E0,1.264869690E-2,-3.528853118E-2,1.458213723E-1,1.505627530E-1
3.899303583E0,5.949395746E-2,-2.946002662E-2,1.488876522E-1,1.630182723E-1
3.909244583E0,9.305741385E-2,-7.596117854E-3,1.509881182E-1,1.775240691E-1
3.919186583E0,8.239150777E-2,2.571196139E-2,1.342674203E-1,1.596158065E-1
3.929127583E0,4.428666517E-2,7.530219734E-2,1.165795930E-1,1.456795495E-1
3.939069583E0,2.380986214E-2,1.022432435E-1,8.550617337E-2,1.353953325E-1
3.949010583E0,4.701892287E-3,1.124571598E-1,5.770975269E-2,1.264876916E-1
3.958952583E0,-2.323288813E-2,1.411371678E-1,2.578629412E-2,1.453423551E-1
3.968894583E0,-6.297729000E-2,1.577648950E-1,7.990658730E-3,1.700580835E-1
3.978835583E0,-8.412959263E-2,1.553704602E-1,-2.088406160E-2,1.779154638E-1
3.988777583E0,-1.230488062E-1,1.518896127E-1,-2.473723054E-2,1.970365289E-1
3.998718583E0,-1.711978497E-1,1.437157899E-1,-5.440395623E-3,2.235900935E-1
4.008660583E0,-2.087789279E-1,1.322897458E-1,2.513834953E-2,2.484374251E-1
4.018601583E0,-2.466074896E-1,7.723236322E-2,4.264630191E-2,2.619137242E-1
4.028543583E0,-2.510538585E-1,-5.971761346E-3,3.941228002E-2,2.541987995E-1
4.038484583E0,-1.901884367E-1,-8.495595038E-2,2.502359793E-2,2.097983208E-1
4.048426583E0,-1.173572727E-1,-1.289895773E-1,3.856830753E-2,1.786016653E-1
4.058367583E0,9.209364653E-5,-1.169671172E-1,5.741147161E-2,1.302973218E-1
4.068309583E0,8.655867219E-2,-7.096707165E-2,1.078004372E-1,1.554016192E-1
4.078251583E0,1.273447555E-1,-3.677080035E-2,2.007360828E-1,2.405488588E-1
4.088192583E0,1.058981918E-1,-7.665699720E-3,3.290112765E-1,3.457189755E-1
4.098134583E0,7.947988674E-2,1.821583092E-2,4.449989120E-1,4.524078918E-1
4.108075583E0,2.492419526E-2,2.504830241E-2,5.398091018E-1,5.409644160E-1
4.118017583E0,-4.723965526E-3,-8.731647134E-3,5.295178561E-1,5.296109114E-1
4.127958583E0,-7.600342467E-2,4.301211834E-3,4.610590207E-1,4.673012321E-1
4.137900583E0,-1.499524301E-1,4.240342319E-2,3.296251611E-1,3.646046193E-1
4.147841583E0,-2.102629513E-1,3.783908665E-2,2.020414006E-1,2.940459704E-1
4.157783583E0,-2.562137340E-1,4.516213953E-2,1.217448771E-1,2.872401633E-1
4.167725583E0,-2.666581768E-1,6.366857708E-2,7.497416854E-2,2.842206834E-1
4.177666583E0,-2.157688357E-1,8.118274212E-2,5.405173458E-2,2.367877068E-1
4.187608583E0,-1.472716279E-1,9.819989383E-2,4.070254125E-2,1.816283249E-1
4.197549583E0,-9.172234833E-2,1.165554732E-1,6.834225655E-3,1.484751634E-1
4.207491583E0,-4.455534473E-2,1.087979722E-1,-2.452804640E-2,1.200991364E-1
4.217432583E0,2.933255732E-3,9.321689665E-2,-7.689790249E-2,1.208771327E-1
4.227374583E0,3.552782848E-2,1.353127563E-1,-1.222874256E-1,1.858116871E-1
4.237315583E0,8.405284792E-2,1.834353411E-1,-1.369289267E-1,2.438502339E-1
4.247257583E0,1.206526172E-1,1.967026734E-1,-1.286983860E-1,2.642201172E-1
4.257199583E0,1.679712099E-1,1.941749221E-1,-9.140718341E-2,2.725316512E-1
4.267140583E0,2.137196790E-1,1.698733091E-1,-7.063568071E-2,2.819972371E-1
4.277082583E0,2.420278041E-1,1.462119663E-1,-2.524696156E-2,2.838887214E-1
4.287023583E0,2.553379673E-1,1.047774267E-1,2.927583933E-2,2.775479444E-1
4.296965583E0,2.324116194E-1,7.163365424E-2,6.001370184E-2,2.504958796E-1
4.306906583E0,1.611454627E-1,5.483577311E-2,6.802533746E-2,1.833092161E-1
4.316848583E0,6.436088741E-2,7.830766618E-2,7.501977682E-2,1.261046443E-1
4.326789583E0,-4.395059645E-2,1.682471985E-1,9.922958851E-2,2.002131014E-1
4.336731583E0,-1.321714859E-1,2.698267829E-1,1.028373206E-1,3.175709511E-1
4.346673583E0,-6.717997625E-2,2.323326820E-1,7.617869496E-2,2.535642284E-1
4.356614583E0,1.232290466E-1,6.923746526E-2,1.227337874E-2,1.418797390E-1
4.366556583E0,2.406377748E-1,-2.390868008E-2,-6.518402919E-3,2.419104239E-1
4.376497583E0,3.237699786E-1,-1.335270166E-2,9.272660762E-3,3.241778461E-1
4.386439583E0,4.988503794E-1,-7.166347504E-3,3.514527440E-2,5.001382288E-1
4.396380583E0,6.725151694E-1,-1.025929070E-1,6.527816936E-2,6.834202199E-1
4.406322583E0,8.435273699E-1,-2.482985044E-1,9.652101204E-2,8.845941877E-1
4.416263583E0,9.719361725E-1,-3.480789006E-1,1.511985449E-1,1.043398220E0
4.426205583E0,1.090539487E0,-3.626536703E-1,2.048995927E-1,1.167380786E0
4.436147583E0,1.113579417E0,-3.782990652E-1,3.572555208E-1,1.229146374E0
4.446088583E0,7.893831763E-1,-4.402737039E-1,8.358455173E-1,1.231098884E0
4.456030583E0,6.545621708E-2,-6.363823003E-1,1.837609141E0,1.945783725E0
4.465971583E0,-5.219585757E-1,-8.466844279E-1,2.627797186E0,2.809739014E0
4.475913583E0,-5.959641530E-1,-8.032811308E-1,2.318108765E0,2.524690494E0
4.485854583E0,-2.390666279E-1,-4.108779967E-1,1.263421919E0,1.349892043E0
4.495796583E0,-7.359261766E-2,-1.651136756E-1,5.543430141E-1,5.830733887E-1
4.505737583E0,-1.018232672E-1,-1.756509429E-1,4.039058133E-1,4.520632008E-1
4.515679583E0,-6.593527946E-1,-2.226613873E-1,3.155893950E-1,7.641471503E-1
4.525621583E0,-1.503952105E0,-2.687965035E-3,-2.668318391E-2,1.504191196E0
4.535562583E0,-1.684524942E0,5.829580450E-1,-1.755168078E0,2.501615347E0
4.545504583E0,-1.163088669E0,1.437568374E0,-3.905883923E0,4.321493642E0
4.555445583E0,-9.439993456E-1,2.222985676E0,-4.538269651E0,5.140884312E0
4.565387583E0,-2.700191856E0,2.557872673E0,-1.023003123E0,3.857497124E0
4.575328583E0,-5.305825464E0,1.593537004E0,6.032937255E0,8.190694473E0
4.585270583E0,-4.072983020E0,8.203871602E-1,4.160963443E0,5.880122664E0
4.595211583E0,-2.282754160E0,6.403432041E-1,-1.688205180E0,2.910505575E0
4.605153583E0,-2.166313731E0,1.148845144E0,-3.986375524E0,4.680165613E0
4.615095583E0,-1.977406565E0,1.860955904E0,-2.960355238E0,4.017088091E0
4.625036583E0,-2.300461430E0,2.193513955E0,-8.304771886E-1,3.285318648E0
4.634978583E0,-2.567156882E0,1.614593997E0,-8.953614749E-2,3.034011364E0
4.644919583E0,-2.202851081E0,5.942069185E-1,-1.036652863E-2,2.281609566E0
4.654861583E0,-1.152700506E0,-4.887634939E-1,4.292663205E-1,1.323585200E0
4.664802583E0,7.412008037E-1,-1.351751128E0,2.690980737E-1,1.564935627E0
4.674744583E0,2.805506349E0,-1.245380335E0,8.586870074E-2,3.070702117E0
4.684685583E0,4.272932653E0,-3.228165901E-1,8.939802164E-1,4.377369602E0
4.694627583E0,5.675111631E0,1.831073123E-1,8.611282200E-1,5.742992436E0
4.704569583E0,5.742569203E0,-1.469949085E-1,6.374868393E-1,5.779714355E0
4.714510583E0,4.422422860E0,-8.014819425E-1,1.155296377E0,4.640571837E0
4.724452583E0,2.259511916E0,-1.719095435E0,5.835404277E-2,2.839733863E0
4.734393583E0,1.552266186E-1,-3.102599283E0,-1.550644169E0,3.471990057E0
4.744335958E0,-9.511250550E-1,-4.477452761E0,-2.634130306E0,5.281180225E0
4.754276958E0,-1.157944435E0,-6.010755842E0,-3.365335148E0,6.985377711E0
4.764218958E0,-1.492311907E0,-7.892473454E0,-3.455247198E0,8.743961646E0
4.774159958E0,-2.081675431E0,-1.037859845E1,-2.912298142E0,1.097862281E1
4.784101958E0,-2.679661404E0,-1.239070488E1,-2.030821027E0,1.283878447E1
4.794043958E0,-3.633864434E0,-1.212041968E1,-1.205847895E0,1.271076760E1
4.803984958E0,-4.306348321E0,-1.014998285E1,-9.823819309E-1,1.106941109E1
4.813926958E0,-3.584482359E0,-8.324494983E0,-1.091317313E0,9.128893908E0
4.823867958E0,-2.233706107E0,-7.728773051E0,-6.019568912E-1,8.067572618E0
4.833809958E0,-1.356714976E0,-8.094582464E0,8.405669978E-1,8.250423847E0
4.843750958E0,-6.990843326E-1,-8.600458419E0,2.922933642E0,9.110441537E0
4.853692958E0,-9.504751369E-2,-7.133408384E0,3.882299178E0,8.121994589E0
4.863633958E0,6.040910518E-1,-2.807759281E0,3.694949126E0,4.679859744E0
4.873575958E0,1.640137997E0,1.900394788E0,2.728445894E0,3.707555798E0
4.883517958E0,2.999522519E0,4.960519313E0,1.705400671E0,6.042539089E0
4.893458958E0,3.909163041E0,6.971880805E0,1.645097167E0,8.160577329E0
4.903400958E0,4.621750349E0,8.755654047E0,1.878167768E0,1.007718057E1
4.913341958E0,5.092631303E0,1.041810575E1,1.911053093E0,1.175261439E1
4.923283958E0,4.731166664E0,1.181668489E1,1.819666375E0,1.285803894E1
4.933224958E0,3.220632640E0,1.280330079E1,1.163619304E0,1.325333904E1
4.943166958E0,5.316956516E-1,1.367761507E1,3.120698462E-1,1.369150254E1
4.953107958E0,-1.948132919E0,1.413523921E1,9.375057203E-1,1.429961980E1
4.963049958E0,-3.898743888E0,1.257181888E1,1.322557296E0,1.322875624E1
4.972991958E0,-5.852260630E0,1.060963598E1,-8.761364146E-1,1.214828980E1
4.982932958E0,-6.948977262E0,9.729466299E0,-2.286215712E0,1.217282144E1
4.992874958E0,-7.063925920E0,9.809301258E0,-2.565354186E0,1.235728460E1
5.002815958E0,-5.971218724E0,1.005088190E1,-2.321980206E0,1.191919762E1
5.012757958E0,-4.070563150E0,1.037143444E1,-1.171907147E0,1.120310239E1
5.022698958E0,-2.816734173E0,1.075284364E1,5.282089569E-1,1.112819134E1
5.032640958E0,-2.574912921E0,1.075114912E1,9.022498604E-1,1.109195379E1
5.042581958E0,-1.848753934E0,1.017742617E1,-1.317749569E0,1.042757682E1
5.052523958E0,-3.898720937E-1,9.712352083E0,-4.276236037E0,1.061922680E1
5.062465958E0,1.246593633E0,9.702146938E0,-5.625942979E0,1.128436464E1
5.072406958E0,2.352755857E0,1.018111693E1,-4.114724831E0,1.123038568E1
5.082348958E0,3.015252407E0,1.098426825E1,-1.128828882E0,1.144640340E1
5.092289958E0,5.571846294E0,1.144246075E1,3.926663758E0,1.331893642E1
5.102231958E0,5.604404175E0,8.841303477E0,-8.936350845E-1,1.050602575E1
5.112172958E0,2.174970534E0,6.299763247E0,-1.009725850E1,1.209843556E1
5.122114958E0,1.536282384E0,5.624251964E0,-9.056483352E0,1.077089896E1
5.132055958E0,5.112926989E0,-1.394021235E0,3.006452815E1,3.052803908E1
5.141997958E0,-8.226416126E0,-2.389035959E1,3.565881898E1,4.370325588E1
5.151939958E0,-1.293286222E1,-4.906709258E1,-1.019737570E1,5.175736634E1
5.161880958E0,2.594573015E0,-3.984463017E1,-2.044638933E1,4.485957198E1
5.171822958E0,-8.372622246E0,-2.323630174E1,1.288777084E1,2.785895114E1
5.181763958E0,-5.505124885E0,-3.979670522E0,1.513107500E1,1.658594610E1
5.191705958E0,3.136744392E0,3.603725545E0,-1.438144441E1,1.515427156E1
5.201646958E0,2.400933259E0,7.793325142E0,-1.476883531E1,1.687065185E1
5.211588958E0,2.906988870E0,1.162692871E1,-3.076089177E0,1.237329302E1
5.221529958E0,8.481781576E0,1.179211957E1,5.412970428E0,1.550144998E1
5.231471958E0,9.338163026E0,5.619793462E0,1.174975766E0,1.096193119E1
5.241413958E0,6.774011613E0,-3.490826921E0,-1.347184453E0,7.738734513E0
5.251354958E0,-4.933535582E-1,-1.212189434E1,2.685544873E0,1.242561353E1
5.261296958E0,-9.932004493E0,-1.658896479E1,3.503517133E0,1.964976077E1
5.271237958E0,-7.771131451E0,-1.694521927E1,9.485223131E-1,1.866629676E1
5.281179958E0,-3.998185730E-1,-1.324286523E1,9.817998406E-1,1.328522733E1
5.291120958E0,8.576631600E-1,-6.778945493E0,-9.332629806E-1,6.896424283E0
5.301062958E0,1.620531844E0,-1.908472132E0,-1.485861697E0,2.911387010E0
5.311003958E0,1.726996485E0,1.738919250E0,-1.968404631E0,3.143401630E0
5.320945958E0,1.713166943E0,3.325284060E0,-1.157764779E0,3.915721432E0
5.330887958E0,2.195007626E0,2.627496639E0,3.218892217E-2,3.423862321E0
5.340828958E0,2.082304883E0,9.021458530E-1,7.550898412E-1,2.391656630E0
5.350770958E0,2.275548052E0,-1.089592969E0,3.786995995E-1,2.551224247E0
5.360711958E0,2.538546164E0,-2.420318094E0,-3.599282831E-2,3.507627658E0
5.370653958E0,2.511433502E0,-2.745768855E0,-3.364277387E-1,3.736272001E0
5.380594958E0,2.747639380E0,-2.468399164E0,1.365383327E-1,3.696100555E0
5.390536958E0,1.840520177E0,-2.136821106E0,-4.946244505E-1,2.863245066E0
5.400477958E0,5.835012513E-1,-2.104808185E0,-5.535187760E-1,2.253236393E0
5.410419958E0,-3.032827967E-1,-2.691299118E0,7.182251930E-1,2.801949112E0
5.420361958E0,-1.261736167E0,-3.737669469E0,1.144452569E0,4.107544631E0
5.430302958E0,-9.869699487E-1,-4.208810624E0,6.867847145E-1,4.377198852E0
5.440244958E0,-1.867056888E-1,-3.391655220E0,1.260582511E0,3.623155036E0
5.450185958E0,6.427215591E-1,-1.691956168E0,1.813920901E0,2.562443309E0
5.460127958E0,1.653837877E0,-1.476000953E-1,1.754752049E0,2.415806338E0
5.470068958E0,2.392812500E0,8.897345531E-1,1.609476514E0,3.017879037E0
5.480010958E0,2.676652720E0,1.383271714E0,1.409267558E0,3.326250962E0
5.489951958E0,2.480709015E0,1.166527124E0,1.014267236E0,2.922916484E0
5.499893958E0,1.981227575E0,4.417898870E-1,5.805603942E-1,2.111277191E0
5.509835958E0,8.397025600E-1,-4.117042083E-1,1.971891618E-1,9.557637312E-1
5.519776958E0,-4.314122486E-1,-1.421696107E0,-1.018944570E-1,1.489200735E0
5.529718958E0,-1.270500851E0,-2.116101497E0,1.084833920E-2,2.468233305E0
5.539659958E0,-1.640957631E0,-2.096765925E0,5.609538031E-1,2.720999533E0
5.549601958E0,-1.275374505E0,-1.288621080E0,1.756138131E-1,1.821528102E0
5.559542958E0,-5.143631887E-1,2.166779315E-1,-4.519891852E-1,7.182012528E-1
5.569484958E0,2.284244031E-2,1.719384288E0,-6.198984146E-1,1.827861633E0
5.579425958E0,3.660348228E-1,2.703447293E0,-6.818075645E-1,2.812022460E0
5.589367958E0,4.428830239E-1,3.153008130E0,-6.814298344E-1,3.256063921E0
5.599309958E0,1.300376907E-1,3.035219479E0,-5.183439732E-1,3.081906481E0
5.609250958E0,-4.451295242E-1,2.296295142E0,-5.429242060E-2,2.339670776E0
5.619192958E0,-1.084251537E0,1.089561394E0,3.288614416E-1,1.571908164E0
5.629133958E0,-1.459183630E0,-1.433772361E-1,4.323371319E-1,1.528623332E0
5.639075958E0,-1.588120728E0,-8.895146978E-1,2.841786276E-1,1.842314126E0
5.649016958E0,-1.475440789E0,-7.732241035E-1,-6.362603858E-2,1.666988095E0
5.658958958E0,-1.116673179E0,1.651733172E-1,-2.028106749E-1,1.146897285E0
5.668899958E0,-7.881008819E-1,1.278793080E0,-3.185071921E-1,1.535532993E0
5.678841958E0,-7.106697133E-1,2.099232280E0,-5.780592477E-1,2.290410466E0
5.688783958E0,-3.091080853E-1,2.486758837E0,-6.811602777E-1,2.596824338E0
5.698724958E0,-3.448376428E-1,2.588841866E0,-4.606774168E-1,2.652025432E0
5.708666958E0,-3.674619819E-1,2.362282725E0,-7.263162777E-2,2.391795003E0
5.718607958E0,-5.211376266E-1,1.782731853E0,1.487717311E-1,1.863290185E0
5.728549958E0,-5.281886378E-1,1.082354701E0,1.361512470E-1,1.212028092E0
5.738490958E0,-4.720376797E-1,4.737642163E-1,1.307237153E-1,6.814402347E-1
5.748432458E0,-3.565268116E-1,1.101135957E-1,3.514976214E-1,5.126274955E-1
5.758373458E0,-2.098507226E-1,3.245847881E-2,4.820391959E-1,5.267377573E-1
5.768315458E0,1.379577443E-2,1.082611978E-1,4.270597275E-1,4.407843250E-1
5.778257458E0,3.503764178E-1,3.161811697E-1,1.176508029E-1,4.863906636E-1
5.788198458E0,7.437039967E-1,6.609236491E-1,-2.456345860E-1,1.024818059E0
5.798140458E0,1.009676587E0,1.024383066E0,-2.385893489E-1,1.457989147E0
5.808081458E0,1.099562764E0,1.227102524E0,-9.252166271E-2,1.650266383E0
5.818023458E0,9.687767757E-1,1.014328194E0,-2.791446134E-2,1.402914589E0
5.827964458E0,6.413762610E-1,3.227505165E-1,-1.092705734E-1,7.262723059E-1
5.837906458E0,1.452590894E-1,-5.412562877E-1,-3.421812527E-2,5.614529830E-1
5.847847458E0,-5.944171259E-1,-1.337005620E0,4.453496718E-1,1.529461368E0
5.857789458E0,-1.168457582E0,-1.827351955E0,7.028388298E-1,2.280019893E0
5.867731458E0,-1.296418050E0,-1.645490685E0,6.668971646E-1,2.198429253E0
5.877672458E0,-9.586410660E-1,-9.632539344E-1,3.534413821E-1,1.404197866E0
5.887614458E0,-4.318264508E-1,-1.378551257E-1,-6.706763662E-2,4.582315868E-1
5.897555458E0,-5.369044974E-2,8.559645438E-1,-6.582551260E-1,1.081137260E0
5.907497458E0,1.058563111E-1,1.910107014E0,-1.003891645E0,2.160442731E0
5.917438458E0,8.728387311E-2,2.829401581E0,-9.937663136E-1,3.000117209E0
5.927380458E0,-6.001392111E-2,3.451656423E0,-1.020991534E0,3.599994090E0
5.937322458E0,-2.922162102E-1,3.604330148E0,-5.784765927E-1,3.662133435E0
5.947263458E0,-5.592315057E-1,3.120625080E0,-1.638664645E-1,3.174569732E0
5.957205458E0,-7.760297437E-1,2.041331397E0,-2.613891046E-1,2.199449999E0
5.967146458E0,-1.048301686E0,7.186216342E-1,-3.258466172E-1,1.312070690E0
5.977088458E0,-1.362773715E0,-4.367987037E-1,-1.712649465E-1,1.441276166E0
5.987029458E0,-1.501406812E0,-1.052424558E0,3.217407024E-1,1.861541551E0
5.996971458E0,-1.222004337E0,-9.280577892E-1,5.633920920E-1,1.634624271E0
6.006912458E0,-6.242887965E-1,-2.839039546E-1,4.421746337E-1,8.160002228E-1
6.016854458E0,2.437438157E-1,4.833419555E-1,4.324027669E-1,6.928222330E-1
6.026796458E0,8.621647851E-1,1.309996161E0,7.937025145E-2,1.570260391E0
6.036737458E0,1.400299975E0,2.266379617E0,-7.351704240E-1,2.763655576E0
6.046679458E0,1.878903640E0,3.270269946E0,-1.022395012E0,3.907714930E0
6.056620458E0,1.805954947E0,4.129687271E0,-6.787909859E-1,4.558129817E0
6.066562458E0,1.403955362E0,4.380688359E0,-3.397723460E-1,4.612696218E0
6.076503458E0,7.649024923E-1,3.196551760E0,-5.954349799E-1,3.340293668E0
6.086445458E0,-2.420804290E-1,7.970205170E-1,-5.089967604E-1,9.761774125E-1
6.096386458E0,-1.373918069E0,-1.645004781E0,4.869162123E-1,2.197903316E0
6.106328458E0,-2.199857453E0,-3.524483494E0,4.668707876E-1,4.180828273E0
6.116270458E0,-2.203918490E0,-4.113966447E0,7.112342620E-1,4.720998921E0
6.126211458E0,-1.436504180E0,-3.076776810E0,1.041939623E0,3.551864014E0
6.136153458E0,-3.028360695E-2,-1.051896554E0,7.544954717E-1,1.294861720E0
6.146094458E0,1.036449672E0,1.105624280E0,1.078308427E-1,1.519296042E0
6.156036458E0,1.401408023E0,2.861288202E0,-7.038878202E-3,3.186057778E0
6.165977458E0,1.392408281E0,3.734385087E0,-2.388429719E-1,3.992678145E0
6.175919458E0,9.463344312E-1,3.440857201E0,-4.868915078E-1,3.601681617E0
6.185860458E0,1.210829723E-1,1.742429334E0,-1.423381859E-1,1.752421533E0
6.195802458E0,-7.939390343E-1,-5.065419531E-1,3.123532900E-1,9.922139478E-1
6.205744458E0,-1.396027122E0,-2.430589898E0,5.937414801E-1,2.865168045E0
6.215685458E0,-1.339406779E0,-3.580044322E0,7.603929734E-1,3.897297184E0
6.225627458E0,-6.276255101E-1,-3.385267721E0,9.324578190E-1,3.566991577E0
6.235568458E0,4.249045900E-1,-1.597187421E0,9.177816001E-1,1.890469421E0
6.245510458E0,1.330638295E0,6.956853461E-1,5.975351536E-1,1.616052175E0
6.255451458E0,1.483907558E0,2.547099178E0,8.901812804E-1,3.079304885E0
6.265393458E0,7.681577834E-1,3.105273800E0,1.591766467E0,3.573025642E0
6.275334458E0,-5.942645136E-1,1.291592635E0,2.147444912E0,2.575438118E0
6.285276458E0,-2.145695133E0,-2.198790482E0,3.032853695E0,4.317046296E0
6.295218458E0,-2.811155052E0,-5.251745151E0,2.939378352E0,6.642542055E0
6.305159458E0,-2.279926447E0,-6.542754818E0,2.431251218E0,7.342798356E0
6.315101458E0,-8.154518178E-1,-5.182849163E0,2.462613637E0,5.795804779E0
6.325042458E0,1.650174889E-1,-1.597296764E0,1.370801357E0,2.111322828E0
6.334984458E0,1.390846782E0,1.400397039E0,1.809783411E-1,1.981998940E0
6.344925458E0,2.250732761E0,2.876658778E0,-9.277397007E-2,3.653706432E0
6.354867458E0,2.662568531E0,2.977691063E0,-3.891438961E-1,4.013396096E0
6.364808458E0,2.874756678E0,2.151104684E0,3.868691830E-1,3.611252565E0
6.374750458E0,3.110771060E0,4.521336114E-1,1.495169295E0,3.480926976E0
6.384692458E0,3.846925570E0,-1.705285481E0,1.364255984E0,4.423576529E0
6.394633458E0,4.457545623E0,-3.817933613E0,2.712798160E0,6.465725320E0
6.404575458E0,4.035569611E0,-6.358564017E0,3.289913667E0,8.218314327E0
6.414516458E0,2.536855149E0,-9.127356284E0,3.399071828E0,1.006468857E1
6.424458458E0,8.971906301E-1,-1.120330846E1,3.563979682E0,1.179071765E1
6.434399458E0,6.633296321E-1,-1.136512080E1,3.559204845E0,1.192786301E1
6.444341458E0,1.263446185E0,-9.395749914E0,3.027141843E0,9.951884266E0
6.454283458E0,1.854278529E0,-7.211994962E0,2.245500380E0,7.777756242E0
6.464224458E0,2.358882569E0,-6.077880124E0,9.575242478E-1,6.589522476E0
6.474166458E0,2.907361922E0,-6.222979365E0,6.943667259E-1,6.903649084E0
6.484107458E0,3.325484619E0,-6.967866107E0,5.971959420E-1,7.743813598E0
6.494049458E0,3.861025838E0,-6.944431636E0,-8.307466722E-1,7.988916779E0
6.503990458E0,3.860836681E0,-7.967841725E0,-9.579464167E-1,8.905628724E0
6.513932458E0,3.404022081E0,-9.443269651E0,-4.315104818E-1,1.004733344E1
6.523873458E0,3.092646153E0,-1.280856562E1,-9.545345664E-2,1.317698467E1
6.533815458E0,8.125630009E-1,-1.880685345E1,7.456211525E-1,1.883915991E1
6.543757458E0,-2.952265030E0,-1.833856281E1,1.204900646E0,1.861371914E1
6.553698458E0,-4.312555432E0,-1.192879239E1,-1.578630825E-2,1.268441845E1
6.563640458E0,-2.884487322E0,-5.855830355E0,-7.165376866E-1,6.566920322E0
6.573581458E0,-1.658724395E0,-1.833986206E0,-6.278153619E-2,2.473623566E0
6.583523458E0,-1.895583992E0,6.263660198E-1,5.774335957E-1,2.078221022E0
6.593464458E0,-2.742779466E0,3.144356589E0,6.871180058E-1,4.228705324E0
6.603406458E0,-2.792371749E0,5.783072281E0,1.509023688E0,6.596849057E0
6.613347458E0,-1.964289653E0,7.596418401E0,3.918168923E0,8.770179820E0
6.623289458E0,-1.902177604E0,8.935492766E0,5.205919937E0,1.051489006E1
6.633231458E0,-2.723204158E0,9.662936679E0,5.317543284E0,1.136065371E1
6.643172458E0,-4.030850908E0,9.968720330E0,4.597340562E0,1.169438687E1
6.653114458E0,-4.506523655E0,1.035133289E1,3.053170431E0,1.169532803E1
6.663055458E0,-3.923182910E0,1.087979839E1,1.346359996E0,1.164362754E1
6.672997458E0,-3.102319494E0,1.114319791E1,-2.079889325E-1,1.156885929E1
6.682938458E0,-2.613791351E0,1.103163889E1,-1.005163268E0,1.138153394E1
6.692880458E0,-2.064700963E0,1.095602386E1,-9.431208014E-1,1.118869634E1
6.702821458E0,-1.623253577E0,1.091798772E1,-5.968767571E-1,1.105412457E1
6.712763458E0,-1.446013507E0,1.098326838E1,-8.272231400E-2,1.107835648E1
6.722705458E0,-1.426972342E0,1.109967358E1,8.140996492E-1,1.122059543E1
6.732646458E0,-1.350321192E0,1.094329097E1,1.345470049E0,1.110807248E1
6.742588208E0,-1.072426640E0,1.073615920E1,8.458552927E-1,1.082269303E1
6.752529208E0,-7.485000291E-1,1.061481427E1,1.656826097E-1,1.064246142E1
6.762471208E0,-5.186540949E-1,1.038974208E1,-3.363668545E-1,1.040811631E1
6.772412208E0,-4.044429166E-1,1.022417583E1,-6.070825604E-1,1.025016559E1
6.782354208E0,-3.510376282E-1,1.027754336E1,-5.613485632E-1,1.029884640E1
6.792296208E0,-1.127889892E-1,1.079775611E1,3.670332348E-1,1.080458105E1
6.802237208E0,6.439691357E-1,1.170680167E1,2.430797621E0,1.197383309E1
6.812179208E0,1.295807600E0,1.206970561E1,2.685157202E0,1.243249693E1
6.822120208E0,1.467159963E0,1.190700098E1,1.422366782E0,1.208107437E1
6.832062208E0,1.163526114E0,1.148051092E1,-1.213254856E-1,1.153995857E1
6.842003208E0,1.066030444E0,1.093575624E1,-1.505912384E0,1.109030918E1
6.851945208E0,1.249007656E0,1.024993866E1,-2.762961423E0,1.068902327E1
6.861886208E0,1.410621773E0,9.608368124E0,-3.616111702E0,1.036276293E1
6.871828208E0,1.103516505E0,9.120927270E0,-3.859665484E0,9.965243629E0
6.881770208E0,6.809315785E-1,8.941522999E0,-3.659875188E0,9.685514326E0
6.891711208E0,5.636320471E-1,8.905225239E0,-3.435349123E0,9.561503085E0
6.901653208E0,4.103274082E-1,8.817212949E0,-3.169887872E0,9.378688708E0
6.911594208E0,1.950609215E-1,8.574110865E0,-2.768865942E0,9.012216403E0
6.921536208E0,1.416480683E-1,7.687996323E0,4.967462589E-1,7.705329875E0
6.931477208E0,-2.140370366E-1,7.032327567E0,2.023432485E0,7.320773312E0
6.941419208E0,-7.359286617E-1,7.162237496E0,-1.094477294E0,7.282658683E0
6.951360208E0,-7.805730303E-1,7.135645528E0,-4.078098457E0,8.255762738E0
6.961302208E0,2.702768724E-1,2.914586157E0,-5.288089689E0,6.044150446E0
6.971244208E0,6.182607849E0,-1.618242660E1,7.195533881E-1,1.733820427E1
6.981185208E0,1.210733127E1,-5.617268985E1,1.243193009E1,5.879210356E1
6.991127208E0,9.572925518E-1,-7.049146849E1,4.982261599E0,7.067380327E1
7.001068208E0,-1.873139864E1,-5.564611768E1,-2.041635013E0,5.874967218E1
7.011010208E0,-2.649673023E1,-1.923611977E1,1.504623950E0,3.277756718E1
7.020951208E0,-1.452152616E1,-2.191113088E0,2.850848583E0,1.496004800E1
7.030893208E0,-3.228239283E0,3.896675143E0,2.356575258E0,5.582029468E0
7.040834208E0,3.472519873E0,7.351400769E0,4.296673810E0,9.195808468E0
7.050776208E0,7.942088833E0,8.973564572E0,1.748276403E0,1.211024800E1
7.060718208E0,9.594771008E0,8.222920661E0,-4.783593092E0,1.351143285E1
7.070659208E0,8.253964698E0,4.409516301E0,-4.993291787E0,1.060682470E1
7.080601208E0,6.061983883E0,1.446568993E0,-1.927853898E0,6.523559696E0
7.090542208E0,3.825125981E0,5.147637230E-1,5.036923125E-1,3.892335598E0
7.100484208E0,1.048289407E0,3.107005745E-1,1.279779505E0,1.683235310E0
7.110425208E0,9.565194038E-1,3.507908392E-1,-2.925929171E-1,1.059997263E0
7.120367208E0,1.732241730E0,5.560819030E-2,-2.200696821E0,2.801217624E0
7.130308208E0,1.963453793E0,-7.178281671E-1,-3.138599421E0,3.771105196E0
7.140250208E0,2.042021076E0,-1.440216578E0,-2.481373551E0,3.521546331E0
7.150192208E0,9.862481099E-1,-2.135049984E0,-1.921451197E0,3.036955461E0
7.160133208E0,-1.105297567E0,-3.025540583E0,-2.117418729E0,3.854742612E0
7.170075208E0,-2.698678304E0,-4.140332712E0,-2.252336652E0,5.431228217E0
7.180016208E0,-3.192243824E0,-4.878955917E0,-1.721342082E0,6.079280387E0
7.189958208E0,-3.192016075E0,-4.852357517E0,-4.089373058E-1,5.822505459E0
7.199899208E0,-2.490702491E0,-3.979657073E0,8.544286264E-1,4.771930175E0
7.209841208E0,-1.414091803E0,-2.776946794E0,1.803185851E0,3.600356696E0
7.219783208E0,-4.853069124E-1,-1.659714621E0,2.738231210E0,3.238531392E0
7.229724208E0,2.926172196E-1,-9.645666343E-1,3.432822249E0,3.577748206E0
7.239666208E0,5.149403089E-1,-8.264051145E-1,3.637741722E0,3.765803204E0
7.249607208E0,4.421532914E-1,-7.373958743E-1,3.356444457E0,3.464819129E0
7.259549208E0,4.494450617E-1,-7.912756276E-1,2.631006723E0,2.783938641E0
7.269490208E0,9.457982415E-1,-1.065035248E-1,1.433642845E0,1.720816412E0
7.279432208E0,1.306872579E0,7.227135158E-1,2.944076005E-1,1.522138824E0
7.289373208E0,1.815172497E0,1.405092353E0,-4.357923979E-1,2.336461155E0
7.299315208E0,2.460292877E0,2.026446140E0,-7.844342391E-1,3.282508503E0
7.309257208E0,2.899067355E0,2.568551443E0,-1.160506831E0,4.043367921E0
7.319198208E0,3.144763556E0,3.004411669E0,-1.778793753E0,4.698950363E0
7.329140208E0,3.041801689E0,3.028794558E0,-2.196339329E0,4.821831648E0
7.339081208E0,2.705228063E0,2.878233433E0,-2.281267798E0,4.561432815E0
7.349023208E0,2.215526968E0,2.501778579E0,-1.708534487E0,3.753204750E0
7.358964208E0,1.380056622E0,1.986231329E0,-8.062263733E-1,2.549445457E0
7.368906208E0,4.176914647E-1,1.547531696E0,9.093414366E-2,1.605487318E0
7.378848208E0,-8.864433747E-1,8.272722566E-1,9.871218301E-1,1.563512312E0
7.388789208E0,-2.317009488E0,5.463638306E-3,1.933271343E0,3.017631672E0
7.398731208E0,-3.555536595E0,-5.519771576E-1,2.414507132E0,4.333170196E0
7.408672208E0,-3.991003595E0,-8.417353445E-1,2.276151338E0,4.670919931E0
7.418614208E0,-3.488254438E0,-8.098329359E-1,1.931200844E0,4.068572859E0
7.428555208E0,-2.823210549E0,-6.456893134E-1,1.480877531E0,3.252757408E0
7.438497208E0,-2.004113869E0,-4.026328379E-1,8.297665326E-1,2.206150063E0
7.448438208E0,-1.099435587E0,-4.997615218E-3,5.056306645E-2,1.100609018E0
7.458380208E0,-6.099850452E-1,4.552431607E-1,-5.912799485E-1,9.638153704E-1
7.468322208E0,-2.443548498E-1,8.262881702E-1,-1.239523180E0,1.509595689E0
7.478263208E0,4.825093120E-2,1.048996335E0,-1.465932047E0,1.803241035E0
7.488205208E0,8.611545324E-2,1.130276141E0,-1.267189280E0,1.700208428E0
7.498146208E0,-3.868985653E-2,1.049077612E0,-8.259244734E-1,1.335743978E0
7.508088208E0,-2.133441598E-1,8.644798440E-1,-3.310744666E-1,9.499744384E-1
7.518029208E0,-3.716724157E-1,6.583929741E-1,1.550137800E-1,7.717842736E-1
7.527971208E0,-4.311853766E-1,4.694817156E-1,5.719361897E-1,8.564139860E-1
7.537912208E0,-2.664061435E-1,2.750986326E-1,7.891336463E-1,8.771450295E-1
7.547854208E0,-8.239019215E-3,2.094817632E-1,7.581388718E-1,7.865907700E-1
7.557796208E0,2.020566582E-1,2.461151540E-1,6.065669091E-1,6.850715126E-1
7.567737208E0,3.398047981E-1,2.812066340E-1,4.352351582E-1,6.196564490E-1
7.577679208E0,3.945326900E-1,2.929501820E-1,2.481564170E-1,5.505065485E-1
7.587620208E0,3.717256254E-1,2.511180317E-1,3.749234676E-2,4.501620625E-1
7.597562208E0,2.903519717E-1,2.145097840E-1,-4.455929160E-2,3.637365054E-1
7.607503208E0,1.788476340E-1,2.359988862E-1,5.410004720E-2,3.010128994E-1
7.617445208E0,7.554809103E-2,2.737596202E-1,2.155288075E-1,3.565171953E-1
7.627386208E0,-2.157476395E-2,3.619713002E-1,3.022677201E-1,4.720746416E-1
7.637328208E0,-1.514326710E-1,4.902399158E-1,3.549302293E-1,6.238930170E-1
7.647270208E0,-2.966120008E-1,5.784100807E-1,3.657363224E-1,7.458551856E-1
7.657211208E0,-4.816474324E-1,6.378388417E-1,3.564012426E-1,8.751254098E-1
7.667153208E0,-6.331245241E-1,6.203720391E-1,4.079747079E-1,9.757825025E-1
7.677094208E0,-7.610171637E-1,5.553071469E-1,5.381163329E-1,1.084934255E0
7.687036208E0,-8.343810090E-1,4.844821626E-1,6.525463432E-1,1.164788120E0
7.696977208E0,-8.068482247E-1,4.192406845E-1,7.430067162E-1,1.174234129E0
7.706919208E0,-6.756899151E-1,3.482753670E-1,7.617990826E-1,1.076192564E0
7.716861208E0,-5.024734604E-1,3.045931578E-1,6.859351140E-1,9.031962970E-1
7.726802208E0,-3.424646965E-1,3.363914859E-1,5.751409024E-1,7.491517588E-1
7.736744208E0,-2.700817398E-1,3.928516155E-1,4.310101064E-1,6.426867431E-1
7.746686083E0,-1.998759574E-1,4.469488853E-1,3.071554077E-1,5.779776370E-1
7.756628083E0,-1.888560024E-1,4.117784679E-1,1.166016662E-1,4.677863239E-1
7.766569083E0,-1.421534504E-1,3.640575868E-1,1.459479645E-2,3.910991410E-1
7.776511083E0,-1.018865633E-1,3.845035458E-1,1.985071242E-2,3.982686270E-1
7.786452083E0,-1.699372631E-2,4.129794860E-1,8.093569726E-3,4.134082104E-1
7.796394083E0,8.730857760E-2,4.431353313E-1,7.494610190E-2,4.578303482E-1
7.806336083E0,3.685774845E-1,5.317066151E-1,2.701858020E-1,7.011145799E-1
7.816277083E0,4.836320140E-1,5.780095464E-1,1.918458299E-1,7.776887444E-1
7.826219083E0,3.679758425E-1,4.328149956E-1,7.391859993E-2,5.728865512E-1
7.836160083E0,3.210305215E-1,3.541711146E-1,2.302073653E-1,5.305593324E-1
7.846102083E0,1.721604110E-1,3.926569033E-1,3.908870973E-1,5.801821900E-1
7.856043083E0,-1.387834077E-1,4.106832844E-1,4.432728870E-1,6.200100376E-1
7.865985083E0,-3.267921485E-1,4.350106251E-1,3.149896534E-1,6.286857991E-1
7.875926083E0,-4.907547632E-1,5.744661337E-1,1.995514369E-1,7.814552785E-1
7.885868083E0,-6.367185152E-1,6.924711317E-1,1.527447680E-1,9.530255505E-1
7.895810083E0,-6.924340019E-1,7.561993504E-1,1.748449042E-1,1.040131263E0
7.905751083E0,-6.221153864E-1,8.013994968E-1,2.665698838E-1,1.048965305E0
7.915693083E0,-5.422450519E-1,7.985752916E-1,4.514038789E-1,1.065606707E0
7.925634083E0,-5.369797073E-1,7.643796051E-1,6.575430813E-1,1.142359965E0
7.935576083E0,-6.064901644E-1,7.264440393E-1,4.793822211E-1,1.060829193E0
7.945517083E0,-7.499648298E-1,6.738249457E-1,1.572266588E-1,1.020395769E0
7.955459083E0,-9.415259734E-1,5.216552514E-1,-1.411835070E-1,1.085600360E0
7.965400083E0,-1.071189662E0,2.554245061E-1,-3.052154477E-1,1.142735944E0
7.975342083E0,-1.036637880E0,-8.470393538E-2,-1.337986198E-1,1.048663397E0
7.985284083E0,-7.809333649E-1,-4.250358599E-1,2.816802585E-1,9.326608015E-1
7.995225083E0,-3.803438365E-1,-6.056253612E-1,9.424308300E-2,7.213357546E-1
8.005167083E0,1.124380832E-1,-4.622890556E-1,-2.553335819E-1,5.399525271E-1
8.015108083E0,4.113615614E-1,-6.649161279E-2,-2.541550756E-2,4.174750493E-1
8.025050083E0,4.180780388E-1,4.205042678E-1,2.635951129E-1,6.489186923E-1
8.034991083E0,3.341037628E-1,8.621310174E-1,4.182454884E-2,9.255509216E-1
8.044933083E0,1.081497353E-1,1.192373571E0,-1.916427854E-1,1.212508992E0
8.054875083E0,-3.715794450E-1,1.237870172E0,-3.241988719E-1,1.332478425E0
8.064816083E0,-7.428863367E-1,1.059883851E0,-4.977801928E-1,1.386729608E0
8.074758083E0,-9.245355727E-1,8.343169820E-1,-3.673691574E-1,1.298387827E0
8.084699083E0,-8.939199901E-1,4.797611207E-1,-1.760783744E-1,1.029692806E0
8.094641083E0,-7.587170152E-1,7.739959359E-3,-5.566344649E-2,7.607955280E-1
8.104582083E0,-8.600192955E-1,-2.467618561E-1,-2.167270482E-1,9.205950335E-1
8.114524083E0,-1.252631468E0,-2.250938290E-1,-7.793984708E-1,1.492385608E0
8.124465083E0,-1.378233168E0,-1.874675810E-2,-1.102710905E0,1.765176888E0
8.134407083E0,-1.009160351E0,1.475884008E-1,-1.067838695E0,1.476640251E0
8.144349083E0,-4.140844636E-1,1.029484177E-1,-1.126399730E0,1.204508477E0
8.154290083E0,2.427388255E-1,-3.555738616E-1,-9.275838724E-1,1.022627375E0
8.164232083E0,7.087974349E-1,-1.416342396E0,-5.673401320E-1,1.682347887E0
8.174173083E0,7.597752151E-1,-2.646916412E0,-4.402620095E-1,2.788773119E0
8.184115083E0,1.103583017E-1,-3.404378761E0,-2.539790744E-1,3.415622794E0
8.194056083E0,-1.160744228E0,-3.916215953E0,-7.341997862E-2,4.085274170E0
8.203998083E0,-1.958325785E0,-4.491290781E0,8.096522570E-2,4.900335512E0
8.213940083E0,-1.928615498E0,-4.519776077E0,4.950545132E-2,4.914304052E0
8.223881083E0,-1.666921607E0,-4.191069002E0,-3.568146408E-2,4.510538792E0
8.233823083E0,-1.366862673E0,-4.793260878E0,2.856923255E-1,4.992522761E0
8.243764083E0,-1.004612095E0,-6.854215531E0,8.182614049E-1,6.975605187E0
8.253706083E0,-1.063640321E0,-9.549581387E0,1.179629857E0,9.680772800E0
8.263647083E0,-1.946858226E0,-1.224515482E1,1.576456702E0,1.249877151E1
8.273589083E0,-3.097382398E0,-1.444928849E1,1.589198370E0,1.486274763E1
8.283530083E0,-4.062217712E0,-1.489037671E1,8.614512786E-1,1.545855846E1
8.293472083E0,-4.677420227E0,-1.309534231E1,-1.057023101E0,1.394573584E1
8.303414083E0,-4.411884423E0,-1.097305914E1,-2.789872649E0,1.215138430E1
8.313355083E0,-3.519886706E0,-9.979473360E0,-3.124788297E0,1.103375697E1
8.323297083E0,-2.523282592E0,-9.481974710E0,-2.599811828E0,1.015055767E1
8.333238083E0,-2.321192002E0,-8.850161424E0,-2.057770844E0,9.378044060E0
8.343180083E0,-2.215462064E0,-8.189012657E0,-1.693905045E0,8.650867862E0
8.353121083E0,-1.792684983E0,-6.512315968E0,-1.447624561E0,6.907937144E0
8.363063083E0,-1.928984457E0,-4.138368632E0,-1.995619180E0,4.982928043E0
8.373004083E0,-2.739869892E0,-2.543826492E0,-2.402852023E0,4.444281504E0
8.382946083E0,-2.877981710E0,-1.247456682E0,-1.372951963E0,3.424021611E0
8.392888083E0,-1.574703415E0,8.784798324E-1,5.661500774E-1,1.889958616E0
8.402829083E0,-3.780485120E-1,2.791146757E0,1.293824956E0,3.099581248E0
8.412771083E0,7.076678624E-2,3.830334388E0,6.548722194E-1,3.886557228E0
8.422712083E0,3.992440841E-1,4.616467389E0,-8.021795154E-3,4.633706006E0
8.432654083E0,8.004659888E-1,5.987883289E0,2.020476133E-1,6.044527717E0
8.442595083E0,1.854570744E0,8.630322488E0,1.642577602E0,8.978861847E0
8.452537083E0,2.819754844E0,1.159087945E1,3.537374266E0,1.244236797E1
8.462479083E0,1.425438617E0,1.356093271E1,2.066209399E0,1.379130133E1
8.472420083E0,8.971733809E-2,1.445345872E1,-5.245022607E-1,1.446325070E1
8.482362083E0,6.842841527E-1,1.444976796E1,-8.991550022E-1,1.449387866E1
8.492303083E0,1.688692837E0,1.416942204E1,-7.809038365E-1,1.429104668E1
8.502245083E0,2.338024089E0,1.385849868E1,-4.984517455E-1,1.406317164E1
8.512186083E0,3.711572468E0,1.311762254E1,-1.098878932E-1,1.363304320E1
8.522128083E0,4.746878717E0,1.224096237E1,3.073822796E-1,1.313272634E1
8.532069083E0,4.958105582E0,1.153201320E1,5.631418312E-1,1.256532005E1
8.542011083E0,4.649668465E0,1.117417412E1,8.120285654E-1,1.213016795E1
8.551953083E0,4.260577486E0,1.112247304E1,8.913706040E-1,1.194388834E1
8.561894083E0,3.729765787E0,1.121658047E1,9.047479371E-1,1.185501578E1
8.571836083E0,2.730972184E0,1.114040411E1,5.430783532E-1,1.148310703E1
8.581777083E0,1.323060303E0,1.087297469E1,-2.597695355E-1,1.095625608E1
8.591719083E0,1.447332054E-2,1.069830432E1,-9.783771729E-1,1.074295801E1
8.601660083E0,-9.505657688E-1,1.061886171E1,-1.502084212E0,1.076661768E1
8.611602083E0,-1.769586435E0,1.029113346E1,-2.290626267E0,1.069045522E1
8.621544083E0,-2.299691790E0,9.899092855E0,-3.607209316E0,1.078390378E1
8.631485083E0,-2.727967884E0,9.666642060E0,-4.098100612E0,1.084805080E1
8.641427083E0,-2.924623780E0,9.417378180E0,-3.579726233E0,1.049070426E1
8.651368083E0,-3.088566258E0,9.266152811E0,-2.748783095E0,1.014675505E1
8.661310083E0,-3.598948370E0,9.134682845E0,-1.075578947E0,9.876827938E0
8.671251083E0,-4.284346417E0,8.927339993E0,7.983729780E-1,9.934305360E0
8.681193083E0,-4.987424691E0,8.404156280E0,2.986686419E0,1.021883279E1
8.691134083E0,-1.016192520E1,5.970914084E0,1.510483387E1,1.915913737E1
8.701076083E0,-9.205431231E0,5.549685931E-1,1.055987383E1,1.401994614E1
8.711018083E0,3.396487944E0,-3.218326206E0,-6.651287327E0,8.132243050E0
8.720959083E0,5.971701120E0,-1.702176166E1,1.260859786E1,2.200859660E1
8.730901083E0,1.158797456E1,-1.725113273E1,2.059543485E1,2.925841198E1
8.740842083E0,9.621730766E0,-3.956479880E0,1.283174983E0,1.048226951E1
8.750783458E0,5.484547949E0,-4.262337790E0,9.879221678E-1,7.015966067E0
8.760724458E0,2.491995018E0,-9.548389140E0,4.408812662E-1,9.878064113E0
8.770666458E0,-7.592703080E0,-1.795484630E1,-1.426958952E1,2.415878372E1
8.780608458E0,-1.695754637E1,-3.038139344E1,-8.741296209E0,3.587475025E1
8.790549458E0,-1.503804463E1,-2.633678550E1,-4.027538753E0,3.059395570E1
8.800491458E0,-7.450159657E0,-1.307272061E1,9.981703488E0,1.805644781E1
8.810432458E0,1.190184374E0,-2.103620031E0,9.272790570E0,9.582609302E0
8.820374458E0,3.302916706E0,4.103508702E0,8.158428211E0,9.711230268E0
8.830315458E0,6.945165462E0,3.707913573E0,1.603152165E0,8.034553082E0
8.840257458E0,8.820038323E0,-8.917611980E-1,-5.182235205E0,1.026858684E1
8.850198458E0,6.002059278E0,-5.988273298E0,-6.634346774E0,1.076562538E1
8.860140458E0,4.498757091E-1,-9.818162713E0,-1.674984040E0,9.970169444E0
8.870082458E0,-4.986263434E0,-1.367905348E1,2.375892119E0,1.475209106E1
8.880023458E0,-7.535789791E0,-1.282543952E1,2.272728670E0,1.504810029E1
8.889965458E0,-6.298928849E0,-9.038403761E0,5.723977396E0,1.241503783E1
8.899906458E0,1.238200832E0,-6.629863129E0,8.366157564E0,1.074620020E1
8.909848458E0,5.878849089E0,-3.912115300E0,4.288535070E0,8.261782240E0
8.919789458E0,7.306418724E0,-9.945599270E-1,8.297257483E-1,7.420333472E0
8.929731458E0,7.650057249E0,1.863857877E0,-8.183295250E-2,7.874264329E0
8.939673458E0,6.977887065E0,3.853534970E0,1.408641028E-1,7.972482823E0
8.949614458E0,5.893406317E0,4.269526942E0,9.324297523E-1,7.336928756E0
8.959556458E0,5.181720650E0,2.471747864E0,6.421190035E-1,5.776857556E0
8.969497458E0,3.999273020E0,-1.284048557E-3,-4.563903113E-1,4.025230236E0
8.979439458E0,1.394881068E0,-1.654203621E0,-7.625120044E-1,2.294233504E0
8.989380458E0,-1.299539001E0,-2.796060172E0,-4.254832450E-1,3.112521501E0
8.999322458E0,-3.818763625E0,-4.474005243E0,-1.328468685E0,6.030299129E0
9.009263458E0,-5.782464756E0,-6.361418628E0,-1.768663452E0,8.776828357E0
9.019205458E0,-6.493914780E0,-6.402070810E0,-6.530124394E-1,9.142421182E0
9.029147458E0,-3.913273926E0,-3.609143575E0,-9.757599592E-2,5.324392101E0
9.039088458E0,-1.130996518E0,-7.434910119E-2,-6.169128263E-1,1.290450444E0
9.049030458E0,3.944055131E-1,1.353070260E0,-5.939764651E-1,1.529432208E0
9.058971458E0,1.535684652E0,2.032730142E0,-2.398001246E-1,2.558871486E0
9.068913458E0,1.790853927E0,2.749753733E0,-2.814463699E-1,3.293556655E0
9.078854458E0,1.998580503E0,3.115335104E0,1.141026028E-1,3.703060388E0
9.088796458E0,2.220423134E0,3.111029799E0,4.629439437E-1,3.850078233E0
9.098737458E0,2.058465493E0,3.073138672E0,7.256675291E-1,3.769357352E0
9.108679458E0,1.837572011E0,3.076344700E0,9.165954924E-1,3.698745045E0
9.118621458E0,1.722923461E0,3.151097844E0,6.915690525E-1,3.657342017E0
9.128562458E0,1.075309537E0,3.152213493E0,3.825424627E-1,3.352473600E0
9.138504458E0,-2.763763954E-1,2.856594057E0,1.290411059E-1,2.872832248E0
9.148445458E0,-1.262010401E0,2.175548970E0,3.035746459E-1,2.533345839E0
9.158387458E0,-1.834802185E0,1.442182996E0,3.980117834E-1,2.367446775E0
9.168328458E0,-2.050763833E0,1.051170915E0,-1.408828870E-1,2.308774692E0
9.178270458E0,-2.822964381E0,7.666588497E-1,-3.844216847E-1,2.950368404E0
9.188211458E0,-3.285244666E0,3.317891425E-1,-5.284490582E-1,3.343975920E0
9.198153458E0,-3.791045192E0,-4.745366335E-2,-6.689646669E-1,3.849907690E0
9.208095458E0,-3.905481342E0,-4.209182507E-1,-6.365721886E-1,3.979344272E0
9.218036458E0,-3.504210320E0,-7.330192333E-1,-6.573381364E-1,3.639903926E0
9.227978458E0,-1.977611510E0,-6.937867552E-1,-7.749073707E-2,2.097210567E0
9.237919458E0,-1.950536124E-1,5.558363199E-2,4.391294769E-1,4.837046096E-1
9.247861458E0,7.895955764E-1,6.961285651E-1,5.842607316E-1,1.203917255E0
9.257802458E0,1.601599437E0,9.769633162E-1,5.435571671E-1,1.953210811E0
9.267744458E0,2.207199363E0,1.032486137E0,2.394961059E-1,2.448492401E0
9.277686458E0,2.199305037E0,9.045157295E-1,9.019695595E-2,2.379753526E0
9.287627458E0,1.704769611E0,6.617346579E-1,-1.314079126E-1,1.833412180E0
9.297569458E0,8.948637307E-1,4.984388816E-1,-2.200658083E-2,1.024551953E0
9.307510458E0,4.557553768E-2,5.604199523E-1,4.020580566E-1,6.912295808E-1
9.317452458E0,-4.908066572E-1,7.570963132E-1,6.564972337E-1,1.115829118E0
9.327393458E0,-7.274494681E-1,1.017789161E0,6.638086653E-1,1.416234249E0
9.337335458E0,-8.707995147E-1,1.151534863E0,7.047860987E-1,1.606563967E0
9.347276458E0,-8.848665999E-1,1.081866458E0,1.108905810E0,1.784123322E0
9.357218458E0,-6.692939383E-1,1.005117660E0,1.141067909E0,1.661400571E0
9.367160458E0,-5.575156403E-1,8.317488849E-1,1.055629344E0,1.454985638E0
9.377101458E0,-5.173894152E-1,4.456794548E-1,8.196743846E-1,1.066858979E0
9.387043458E0,-4.015826780E-1,4.097377896E-2,6.421306980E-1,7.584717075E-1
9.396984458E0,-2.577974524E-1,-5.702263176E-2,4.220146402E-1,4.978026351E-1
9.406926458E0,-1.978453656E-1,2.285460252E-1,2.209897049E-1,3.744496281E-1
9.416867458E0,-8.848299086E-3,5.162717199E-1,-2.022785783E-1,5.545551410E-1
9.426809458E0,-1.225985706E-2,4.403795385E-1,-3.876013275E-1,5.867872111E-1
9.436751458E0,-5.765354633E-4,1.078939927E-1,-4.476206939E-1,4.604408014E-1
9.446692458E0,1.414568643E-1,-2.032386911E-1,-7.039708507E-1,7.462512772E-1
9.456634458E0,2.665716380E-1,-3.343274188E-1,-5.720775461E-1,7.142184399E-1
9.466575458E0,1.983334619E-1,-4.647624278E-1,-4.727064550E-1,6.919477357E-1
9.476517458E0,9.611068368E-2,-8.130190837E-1,-6.697681475E-1,1.057746031E0
9.486458458E0,-2.082156949E-1,-1.223176119E0,-3.064934298E-1,1.278065654E0
9.496400458E0,-5.542058238E-1,-1.225117979E0,-2.545351446E-1,1.368519747E0
9.506341458E0,-5.630617243E-1,-7.482167315E-1,8.090171032E-3,9.364465994E-1
9.516283458E0,-4.700164434E-1,-7.720897436E-2,4.180455136E-1,6.337497411E-1
9.526225458E0,-1.664751998E-1,3.769933820E-2,4.972975051E-1,5.257756564E-1
9.536166458E0,9.708599925E-2,-2.632416487E-2,2.995025718E-1,3.159437346E-1
9.546108458E0,3.687952933E-1,-5.991466463E-2,1.420382237E-1,3.997181412E-1
9.556049458E0,3.219652355E-1,-8.920863032E-2,-6.622322559E-2,3.405955199E-1
9.565991458E0,-4.617575437E-2,6.547712088E-3,2.348278351E-3,4.669675831E-2
9.575932458E0,-4.413308805E-1,7.559748173E-2,1.596863266E-1,4.753815817E-1
9.585874458E0,-6.295018816E-1,1.273494333E-1,-9.020263871E-2,6.485576406E-1
9.595816458E0,-5.671731940E-1,2.711733967E-1,1.071094790E-2,6.287568429E-1
9.605757458E0,-4.719296524E-1,4.534199989E-1,-6.800077915E-2,6.579752261E-1
9.615699458E0,-4.015709835E-1,5.376111335E-1,-2.185689211E-1,7.057317896E-1
9.625640458E0,-4.206530795E-1,6.097277677E-1,-1.340099967E-1,7.527786150E-1
9.635582458E0,-5.448631427E-1,7.394096553E-1,-1.964641070E-1,9.392553582E-1
9.645523458E0,-9.053577286E-1,1.059272232E0,-1.693610930E-1,1.403714165E0
9.655465458E0,-1.164484984E0,1.493712169E0,-3.672320402E-1,1.929264288E0
9.665406458E0,-1.097933437E0,1.982066942E0,-7.017231810E-1,2.372016572E0
9.675348458E0,-6.328479508E-1,2.450918913E0,-6.894744337E-1,2.623523402E0
9.685290458E0,-5.186079749E-1,2.812355193E0,-3.421960169E-1,2.880172578E0
9.695231458E0,-5.126932240E-1,2.924757974E0,-3.882779235E-1,2.994632413E0
9.705173458E0,-3.517465666E-1,2.767978334E0,-5.998260927E-1,2.853983365E0
9.715114458E0,-4.262707919E-1,2.331609986E0,-1.217168689E0,2.664509623E0
9.725056458E0,-5.428715810E-1,1.947426283E0,-8.566182625E-1,2.195671544E0
9.734997458E0,-1.139183497E0,1.644179154E0,-2.614874840E-1,2.017285264E0
9.744943750E0,-1.618648749E0,1.467391512E0,-5.955038309E-2,2.185590966E0
9.754885750E0,-1.710270525E0,1.295135463E0,5.275995308E-1,2.209244758E0
9.764826750E0,-1.625736159E0,1.173352579E0,7.690959692E-1,2.147389797E0
9.774768750E0,-1.451554621E0,1.384165168E0,6.296305203E-1,2.102227063E0
9.784709750E0,-9.820208654E-1,1.555748203E0,6.392334026E-1,1.947649043E0
9.794651750E0,-6.620755506E-1,1.573581626E0,8.192428601E-1,1.893584441E0
9.804592750E0,-6.598992169E-1,1.489414465E0,7.687112224E-1,1.801316011E0
9.814534750E0,-6.922729111E-1,1.431996562E0,9.028278211E-2,1.593112337E0
9.824475750E0,-4.408894157E-1,1.432912821E0,6.171268344E-2,1.500476952E0
9.834417750E0,-8.491601390E-1,1.328386824E0,6.894463670E-1,1.720761689E0
9.844359750E0,-1.544330345E0,8.561294353E-1,4.852814770E-1,1.831232355E0
9.854300750E0,-1.467659315E0,-1.933832091E-1,8.863969624E-1,1.725433425E0
9.864242750E0,-1.284280107E0,-1.473352749E0,1.846476443E0,2.688795078E0
9.874183750E0,-1.180585292E0,-2.434875907E0,2.480147974E0,3.670631593E0
9.884125750E0,-4.600317380E-1,-2.921071889E0,2.207900444E0,3.690408453E0
9.894066750E0,1.251117039E-1,-3.050056204E0,2.242055200E0,3.787519941E0
9.904008750E0,3.672139138E-2,-3.401006672E0,2.866774060E0,4.448211815E0
9.913949750E0,-3.979255369E-1,-4.182514526E0,3.390660024E0,5.398920993E0
9.923891750E0,-9.050747234E-1,-5.057467902E0,4.255760257E0,6.671479387E0
9.933833750E0,-1.041856593E0,-5.838465294E0,4.133735883E0,7.229171080E0
9.943774750E0,-9.443721056E-1,-6.142850876E0,3.421899358E0,7.094776302E0
9.953716750E0,-7.520770633E-1,-6.699742618E0,3.676342117E0,7.679040462E0
9.963657750E0,1.507347876E-1,-8.178762488E0,4.496884228E0,9.334711810E0
9.973599750E0,1.653522712E0,-1.030869850E1,4.749820744E0,1.147014382E1
9.983540750E0,2.689570973E0,-1.175954590E1,4.870939969E0,1.300948761E1
9.993482750E0,3.133781023E0,-1.174054596E1,4.427549114E0,1.293306592E1
1.000342475E1,3.150920674E0,-1.127167995E1,3.836037762E0,1.231642220E1
1.001336575E1,2.824340816E0,-1.135843626E1,4.184064330E0,1.242969709E1
1.002330775E1,2.446613608E0,-1.191548178E1,4.340042024E0,1.291513024E1
1.003324875E1,2.277917928E0,-1.281857489E1,3.325877552E0,1.343749358E1
1.004319075E1,2.173964959E0,-1.389176817E1,3.163338990E0,1.441228851E1
1.005313175E1,1.246131556E0,-1.523265868E1,3.622955868E0,1.570708577E1
1.006307375E1,3.215223089E-1,-1.616356231E1,4.129974954E0,1.668594667E1
1.007301475E1,-2.603817024E-1,-1.434815972E1,4.048829342E0,1.491075133E1
1.008295675E1,-1.643095373E0,-1.180322811E1,3.331648754E0,1.237399853E1
1.009289875E1,-2.817199319E0,-9.254069540E0,3.446058884E0,1.026887223E1
1.010283975E1,-2.943359721E0,-6.289294392E0,3.461902499E0,7.759082375E0
1.011278175E1,-3.217075487E0,-4.334711702E0,1.725334414E0,5.667104999E0
1.012272275E1,-3.366515408E0,-2.481184686E0,-4.048271517E-1,4.201617363E0
1.013266475E1,-3.332521451E0,-3.931205875E-1,-2.120055385E0,3.969241470E0
1.014260575E1,-2.852423238E0,1.850504006E0,-2.901473776E0,4.469813584E0
1.015254775E1,-2.012011411E0,4.440711197E0,-1.778928823E0,5.189671821E0
1.016248875E1,-1.638574598E0,6.949597651E0,-8.588823044E-1,7.191627983E0
1.017243075E1,-2.134160038E0,8.791823169E0,3.317008495E-1,9.053221480E0
1.018237275E1,-3.600322174E0,1.031684952E1,-6.013394252E-1,1.094355120E1
1.019231375E1,-4.051972805E0,1.126685483E1,-1.405015755E0,1.205547886E1
1.020225575E1,-3.715745041E0,1.188389746E1,-2.670218736E0,1.273435700E1
1.021219675E1,-3.163003945E0,1.236513501E1,-3.475835245E0,1.322809844E1
1.022213875E1,-2.202031886E0,1.275297848E1,-2.482357053E0,1.317761364E1
1.023207975E1,-1.593556007E0,1.326086413E1,-8.804316330E-1,1.338525674E1
1.024202175E1,-1.600401635E0,1.368797516E1,-1.155175742E-1,1.378170141E1
1.025196375E1,-1.467490915E0,1.365692411E1,4.286570406E-1,1.374222881E1
1.026190475E1,-8.412713680E-1,1.305066257E1,9.993312550E-1,1.311587565E1
1.027184675E1,-3.197766592E-1,1.249933211E1,9.940032721E-1,1.254287060E1
1.028178775E1,-1.238029143E-2,1.187781870E1,6.607166576E-1,1.189618749E1
1.029172975E1,1.673645613E-1,1.162337594E1,5.036674619E-1,1.163548710E1
1.030167075E1,3.341920558E-1,1.151744076E1,9.719639468E-1,1.156321063E1
1.031161275E1,8.930472931E-1,1.161543659E1,2.553926972E0,1.192637596E1
1.032155375E1,1.742872553E0,1.193851280E1,4.559167600E0,1.289774018E1
1.033149575E1,2.578610701E0,1.253613215E1,5.516478424E0,1.393683525E1
1.034143775E1,2.318661034E0,1.241267638E1,2.877544631E0,1.295109984E1
1.035137875E1,1.862634932E0,1.196783541E1,3.690505242E-1,1.211753654E1
1.036132075E1,1.582419401E0,1.176090713E1,-1.877139681E0,1.201443470E1
1.037126175E1,1.455505292E0,1.153014793E1,-4.122836673E0,1.233128498E1
1.038120375E1,1.746376204E0,1.079492605E1,-6.063961412E0,1.250407479E1
1.039114475E1,2.273158587E0,9.572421196E0,-7.045022457E0,1.210086108E1
1.040108675E1,2.106758232E0,7.791616001E0,-7.296434603E0,1.088051782E1
1.041102775E1,1.335700814E0,6.915988441E0,-5.425532001E0,8.891084876E0
1.042096975E1,4.683654821E-1,7.195465468E0,-2.316902046E0,7.573778754E0
1.043091175E1,1.946859688E-2,7.523573788E0,-3.518275505E-1,7.531820776E0
1.044085275E1,-5.700406685E-1,7.447408542E0,1.795316669E0,7.681926991E0
1.045079475E1,-1.293095369E0,7.099220299E0,4.631122266E0,8.574282356E0
1.046073575E1,-2.119972062E0,6.538864081E0,7.245797716E0,9.987622818E0
1.047067775E1,-2.491968706E0,6.151701806E0,7.601018990E0,1.009102734E1
1.048061875E1,-1.431737238E0,6.089038950E0,4.502672387E0,7.707160663E0
1.049056075E1,-2.083839485E-1,6.615530434E0,-3.510320953E0,7.492063800E0
1.050050275E1,3.708459118E-1,6.906962678E0,-7.815852125E0,1.043701129E1
1.051044375E1,6.635423246E-1,7.302367773E0,-7.943951172E0,1.081069950E1
1.052038575E1,3.753663942E-1,7.033203480E0,-8.063523808E0,1.070641244E1
1.053032675E1,1.097913557E0,2.834344817E0,-1.086970025E1,1.128668721E1
1.054026875E1,5.538053480E0,-1.760767021E1,-7.402440530E0,1.988708657E1
1.055020975E1,3.310313726E0,-5.927146155E1,-1.942002406E0,5.939558657E1
1.056015175E1,-1.317954573E1,-7.008777672E1,-8.369276469E0,7.180558237E1
1.057009275E1,-2.628534169E1,-4.489483758E1,-8.013140105E0,5.263721159E1
1.058003475E1,-1.807634910E1,-1.075033519E1,4.893977998E0,2.159340464E1
1.058997675E1,-8.588517820E0,2.060542424E0,1.382540344E1,1.640579939E1
1.059991775E1,-4.073099965E0,8.107933411E0,1.272852309E1,1.563150753E1
1.060985975E1,2.169804080E0,8.885987315E0,4.674050769E-1,9.159000372E0
1.061980075E1,5.361375182E0,7.918051515E0,-7.900506944E0,1.240394669E1
1.062974275E1,5.545866530E0,6.544424783E0,-9.376682729E0,1.270859199E1
1.063968375E1,3.271287070E0,4.124714799E0,-5.736302158E0,7.785868847E0
1.064962575E1,8.022227848E-1,1.306262130E0,-6.306806803E-1,1.657600756E0
1.065956675E1,-1.492389236E0,-3.196521354E0,1.467983543E0,3.820988103E0
1.066950875E1,-2.073020090E0,-7.161099628E0,-5.422507529E-1,7.474810770E0
1.067945075E1,-1.539735311E0,-5.845983644E0,-1.833235570E0,6.317203673E0
1.068939175E1,-6.064208749E-1,-3.563063423E0,-2.547292721E-1,3.623265687E0
1.069933375E1,6.605997133E-1,-2.522519823E0,8.355973761E-1,2.738196708E0
1.070927475E1,2.036960603E0,-1.933244446E0,1.035455938E0,2.993127392E0
1.071921675E1,3.080428396E0,-1.614834902E0,2.750670576E-1,3.488895635E0
1.072915775E1,3.285102871E0,-1.123823154E0,-4.756357639E-1,3.504441287E0
1.073909975E1,2.369899308E0,-6.986855525E-1,-9.674814713E-1,2.653413769E0
1.074903838E1,9.680594686E-1,-1.095072979E0,-5.446622908E-2,1.462631374E0
1.075897938E1,-9.825760585E-1,-2.265368049E0,1.430573788E0,2.853750072E0
1.076892138E1,-2.715663881E0,-3.077838079E0,2.275788811E0,4.693307178E0
1.077886238E1,-2.804904378E0,-3.131313790E0,2.336970713E0,4.809786558E0
1.078880438E1,-2.205315975E0,-2.808111284E0,2.070031285E0,4.127219046E0
1.079874538E1,-1.762215435E0,-2.372838703E0,1.672038213E0,3.395803077E0
1.080868738E1,-8.036132526E-1,-1.876677312E0,1.196104534E0,2.366089189E0
1.081862838E1,2.032340133E-1,-1.413870193E0,7.539445178E-1,1.615167274E0
1.082857038E1,1.208825297E0,-8.671268785E-1,4.119923298E-1,1.543666189E0
1.083851238E1,2.062639528E0,-3.122407311E-1,9.006115437E-2,2.088082160E0
1.084845338E1,2.411036809E0,1.615000963E-1,-2.155692995E-1,2.426036046E0
1.085839538E1,2.448453434E0,6.172016788E-1,-6.092575054E-1,2.597509738E0
1.086833638E1,2.106272913E0,8.234645498E-1,-9.825662644E-1,2.465748550E0
1.087827838E1,1.439733305E0,7.115617061E-1,-1.174530793E0,1.989641836E0
1.088821938E1,7.093191527E-1,3.992630875E-1,-1.106576938E0,1.373702003E0
1.089816138E1,-1.074776709E-2,1.899175644E-2,-8.063088191E-1,8.066040621E-1
1.090810337E1,-7.726186243E-1,-2.070803118E-1,-5.338886498E-1,9.616958378E-1
1.091804438E1,-1.504860324E0,-3.764326340E-1,-1.831910737E-1,1.562006752E0
1.092798637E1,-2.222807043E0,-4.858615208E-1,1.538870215E-1,2.280485428E0
1.093792738E1,-2.826429149E0,-6.401443988E-1,3.272908795E-1,2.916437193E0
1.094786937E1,-3.128571738E0,-7.039065313E-1,5.514709349E-1,3.253853979E0
1.095781038E1,-3.056709458E0,-4.410905600E-1,7.442774624E-1,3.176788084E0
1.096775237E1,-2.418890643E0,-4.426868498E-2,6.203830757E-1,2.497572185E0
1.097769338E1,-1.550192910E0,4.330722731E-1,2.305731817E-1,1.625980825E0
1.098763538E1,-8.132772383E-1,9.281256169E-1,-1.261221027E-1,1.240461129E0
1.099757738E1,-1.603098956E-1,1.337701439E0,-2.925945251E-1,1.378679063E0
1.100751838E1,4.212465718E-1,1.711927918E0,-2.843840110E-1,1.785782780E0
1.101746038E1,9.498211259E-1,1.933178372E0,-1.545408864E-1,2.159449392E0
1.102740138E1,1.514058725E0,1.952462490E0,7.043336704E-2,2.471729042E0
1.103734338E1,2.008788133E0,1.963212011E0,2.145805353E-1,2.816997687E0
1.104728438E1,1.993854929E0,1.912209672E0,3.169356067E-1,2.780728590E0
1.105722638E1,1.753615350E0,2.057525260E0,3.462908220E-1,2.725526431E0
1.106716838E1,1.340073654E0,2.208630762E0,3.080626763E-1,2.601682120E0
1.107710938E1,8.495568725E-1,2.130035997E0,2.743232918E-1,2.309556991E0
1.108705138E1,4.268582909E-1,1.886410587E0,3.273913785E-1,1.961616175E0
1.109699238E1,1.302809349E-1,1.596606792E0,3.864378047E-1,1.647865452E0
1.110693438E1,-4.425552875E-2,1.291074572E0,4.145664203E-1,1.356723044E0
1.111687538E1,-1.860969937E-1,1.017326646E0,3.772529984E-1,1.100865759E0
1.112681738E1,-2.328830512E-1,7.727007776E-1,3.497499617E-1,8.795601418E-1
1.113675838E1,-1.921677192E-1,4.891692907E-1,2.869235299E-1,5.987822135E-1
1.114670038E1,-1.445298685E-1,2.142472440E-1,2.058277651E-1,3.303873989E-1
1.115664238E1,-1.330456446E-1,-2.305615604E-2,1.328159221E-1,1.894011591E-1
1.116658338E1,-3.012296931E-1,-1.679156613E-1,8.714814462E-2,3.557102704E-1
1.117652538E1,-5.281554548E-1,-2.303446287E-1,3.813780628E-2,5.774611023E-1
1.118646638E1,-6.670420294E-1,-2.066207206E-1,3.578956448E-2,6.992267758E-1
1.119640838E1,-7.873370893E-1,-1.113058430E-1,-2.035306133E-2,7.954262568E-1
1.120634938E1,-8.583183405E-1,-2.265035927E-2,-2.412175262E-1,8.918572236E-1
1.121629138E1,-8.542628579E-1,2.759184122E-2,-4.401550785E-1,9.613858919E-1
1.122623338E1,-7.844283919E-1,2.995762467E-2,-5.321154086E-1,9.483523445E-1
1.123617438E1,-6.206698085E-1,7.662015975E-2,-5.236006931E-1,8.156343212E-1
1.124611637E1,-4.424915528E-1,1.289685273E-1,-4.337160516E-1,6.328832979E-1
1.125605738E1,-2.634593113E-1,1.704890209E-1,-2.459006343E-1,3.986783627E-1
1.126599937E1,-6.139664143E-2,2.059447825E-1,-4.572054863E-2,2.197115600E-1
1.127594038E1,1.309733914E-1,1.606417251E-1,8.477753721E-2,2.239353119E-1
1.128588237E1,3.333395317E-1,2.151401138E-1,1.433626181E-1,4.218451757E-1
1.129582338E1,3.958117685E-1,1.196042114E-1,2.936688048E-1,5.071621933E-1
1.130576538E1,4.134914097E-1,2.642239809E-2,5.345261425E-1,6.763072423E-1
1.131570738E1,3.257741117E-1,-4.586322069E-2,7.463549781E-1,8.156457320E-1
1.132564838E1,1.250074773E-1,-1.270675975E-1,8.628255936E-1,8.810454294E-1
1.133559038E1,-1.745794407E-1,-8.850754917E-2,8.027040106E-1,8.262235146E-1
1.134553138E1,-5.132381845E-1,9.767890692E-2,5.421421409E-1,7.529094924E-1
1.135547338E1,-7.365165992E-1,2.797307968E-1,2.513986250E-1,8.269868731E-1
1.136541438E1,-7.967739107E-1,4.162550962E-1,1.000294145E-1,9.045014393E-1
1.137535638E1,-7.275899474E-1,5.480425662E-1,1.361612604E-1,9.210199101E-1
1.138529838E1,-6.163324901E-1,6.961437678E-1,2.747922385E-1,9.695321852E-1
1.139523938E1,-5.286039363E-1,8.746785575E-1,2.942937990E-1,1.063528815E0
1.140518138E1,-4.209176660E-1,1.100980421E0,1.219922143E-1,1.184994376E0
1.141512238E1,-3.532941784E-1,1.310889616E0,-9.959803618E-2,1.361311181E0
1.142506438E1,-3.935576668E-1,1.493785844E0,-2.289863205E-1,1.561639689E0
1.143500538E1,-5.097811644E-1,1.667237064E0,-2.842776648E-1,1.766456921E0
1.144494738E1,-7.279666543E-1,1.828873401E0,-3.375854874E-1,1.997167326E0
1.145488838E1,-8.153025676E-1,1.876950377E0,-4.617921153E-1,2.097835302E0
1.146483038E1,-5.629056036E-1,1.840126367E0,-6.994569464E-1,2.047478397E0
1.147477238E1,-3.503240852E-1,1.913842800E0,-6.696168508E-1,2.057646217E0
1.148471338E1,-3.328648840E-1,1.832727301E0,-2.626406280E-1,1.881134894E0
1.149465538E1,-5.269599916E-1,1.640078502E0,5.312240736E-1,1.802704452E0
1.150459638E1,-7.830523959E-1,1.418094807E0,1.265222862E0,2.055469004E0
1.151453838E1,-9.587235117E-1,1.148110149E0,1.192450755E0,1.912915703E0
1.152447938E1,-1.119849386E0,9.322104818E-1,1.617185337E0,2.176779144E0
1.153442138E1,-9.459464684E-1,8.315722990E-1,2.958700476E0,3.215623690E0
1.154436338E1,4.916970420E-1,1.080923302E0,3.293365864E0,3.500917005E0
1.155430438E1,1.745989557E0,1.719084325E0,2.658518457E0,3.615446147E0
1.156424637E1,2.245569231E0,2.247604208E0,1.465176587E0,3.498720949E0
1.157418738E1,2.128702247E0,2.265418335E0,7.784500524E-2,3.109590541E0
1.158412937E1,1.913848062E0,1.799340284E0,-8.907905602E-1,2.773796619E0
1.159407038E1,1.693072110E0,1.255496603E0,-1.051553980E0,2.355531928E0
1.160401237E1,1.308684631E0,1.053650134E0,-5.687564007E-1,1.773786321E0
1.161395338E1,5.634482253E-1,9.265053535E-1,-2.923047955E-1,1.123088672E0
1.162389537E1,-2.585843414E-1,6.806077158E-1,-9.942250277E-1,1.232305210E0
1.163383738E1,-1.021685745E0,4.108089995E-1,-1.338621206E0,1.733352973E0
1.164377838E1,-1.299238162E0,9.978156567E-2,-1.138200288E0,1.730166482E0
1.165372038E1,-1.161310823E0,-2.268409771E-1,-7.961125906E-1,1.426146876E0
1.166366138E1,-9.268801600E-1,-2.512256205E-1,-3.122565186E-1,1.009814476E0
1.167360338E1,-6.844940677E-1,-4.474406362E-2,-1.756901193E-1,7.080968705E-1
1.168354438E1,-6.298117840E-1,2.720615888E-1,-1.091037231E0,1.288814428E0
1.169348638E1,-7.709068519E-1,5.201688892E-1,-1.470562896E0,1.739950654E0
1.170342738E1,-8.100954759E-1,4.531557047E-1,-1.366801423E0,1.652195782E0
1.171336938E1,-7.376721552E-1,1.369277573E-1,-1.206653641E0,1.420887902E0
1.172331138E1,-5.152458259E-1,-3.886386967E-1,-7.947172987E-1,1.023764564E0
1.173325238E1,-3.712116551E-1,-1.057651969E0,-9.613239147E-1,1.476675133E0
1.174319438E1,-3.334453663E-1,-1.813175966E0,-6.583393259E-1,1.957601482E0
1.175313488E1,-7.418611005E-1,-2.382646823E0,-2.995762467E-1,2.513386103E0
1.176307688E1,-1.275610440E0,-2.814946679E0,-6.363723600E-1,3.155325115E0
1.177301788E1,-1.542924382E0,-3.118639365E0,-9.443007696E-1,3.605305963E0
1.178295988E1,-1.531844493E0,-3.034371632E0,-4.545945583E-1,3.429375303E0
1.179290188E1,-1.178958305E0,-2.554071983E0,-1.690089445E-1,2.818118238E0
1.180284288E1,-3.074863601E-1,-2.100884119E0,-3.949601215E-1,2.159688737E0
1.181278488E1,3.514392954E-1,-1.759373980E0,1.070120864E-1,1.797319662E0
1.182272588E1,3.667850205E-1,-1.953067092E0,-5.895953657E-1,2.072830194E0
1.183266788E1,-1.183625552E-1,-2.724991944E0,-5.487787306E-1,2.782220136E0
1.184260888E1,-1.080204387E0,-3.367620825E0,5.232668902E-1,3.575125141E0
1.185255088E1,-1.895978679E0,-3.925780828E0,-2.439234714E-1,4.366461831E0
1.186249188E1,-2.377907947E0,-4.357396560E0,-5.534394000E-1,4.994761871E0
1.187243388E1,-2.701839601E0,-4.185553908E0,-1.186856139E-1,4.983260481E0
1.188237588E1,-2.661319274E0,-3.902230582E0,-7.396610856E-1,4.780912289E0
1.189231688E1,-2.254950942E0,-3.861974841E0,-8.943497604E-1,4.560648520E0
1.190225888E1,-1.405946047E0,-4.160910233E0,-1.314795556E0,4.584598740E0
1.191219988E1,-3.579758978E-1,-4.717399687E0,-1.329964549E0,4.914347592E0
1.192214188E1,8.642389387E-2,-5.139150581E0,-1.505378534E0,5.355791474E0
1.193208288E1,2.832882428E-1,-5.500316720E0,-1.525543242E0,5.714981927E0
1.194202488E1,-1.032048181E-1,-5.700634142E0,-1.452417963E0,5.883655224E0
1.195196687E1,-8.225775272E-1,-6.083285875E0,-2.455574466E0,6.611569162E0
1.196190788E1,-1.371600379E0,-6.997243688E0,-2.457106729E0,7.541888378E0
1.197184988E1,-2.046411750E0,-8.486089804E0,-2.646210361E0,9.121619949E0
1.198179087E1,-2.794305423E0,-1.083370245E1,-2.776892415E0,1.152772237E1
1.199173288E1,-4.173721775E0,-1.367958558E1,-2.812946931E0,1.457613411E1
1.200167387E1,-7.012932937E0,-1.620322514E1,-3.288883388E0,1.795946790E1
1.201161588E1,-9.539601359E0,-1.677753048E1,-3.296116394E0,1.957942559E1
1.202155687E1,-1.017016743E1,-1.529926548E1,-3.628117206E0,1.872599969E1
1.203149888E1,-8.310717773E0,-1.227681632E1,-3.783313711E0,1.530038273E1
1.204144088E1,-6.235269628E0,-9.460734699E0,-3.840694485E0,1.196390499E1
1.205138188E1,-4.955079648E0,-6.879587184E0,-3.883335890E0,9.325332797E0
1.206132388E1,-4.053957935E0,-4.392326657E0,-3.905308557E0,7.139926002E0
1.207126488E1,-3.255332357E0,-2.017687011E0,-3.776574503E0,5.378732620E0
1.208120688E1,-2.310559425E0,4.267075789E-1,-3.531928754E0,4.242084975E0
1.209114788E1,-1.078306673E0,2.763958958E0,-3.004515749E0,4.222479046E0
1.210108988E1,3.339204526E-1,4.851185735E0,-1.545455350E0,5.102346337E0
1.211103088E1,1.772501564E0,6.560112278E0,9.656909808E-1,6.863628338E0
1.212097288E1,3.076170453E0,7.906671664E0,4.039982797E0,9.396794265E0
1.213091488E1,3.919546527E0,8.865856521E0,5.997297306E0,1.139885221E1
1.214085588E1,4.160931868E0,9.651220613E0,6.368781441E0,1.228905165E1
1.215079788E1,3.652676096E0,1.141388541E1,6.943718861E0,1.385041712E1
1.216073888E1,1.445433610E0,1.352731707E1,6.247069309E0,1.497008551E1
1.217068088E1,-5.905538705E-1,1.484911759E1,2.883632752E0,1.513804429E1
1.218062188E1,-4.318095669E-2,1.498387603E1,-6.081502620E-1,1.499627461E1
1.219056388E1,9.370591392E-1,1.384772109E1,-2.833440253E0,1.416565717E1
1.220050588E1,1.651816056E0,1.260420894E1,-2.966667892E0,1.305357031E1
1.221044688E1,2.735277489E0,1.236640853E1,-2.608459275E0,1.293111993E1
1.222038888E1,3.811128331E0,1.213867468E1,-2.297097380E0,1.292860312E1
1.223032988E1,4.137485118E0,1.155683229E1,-2.180915544E0,1.246737936E1
1.224027188E1,3.821105143E0,1.095040352E1,-1.771367204E0,1.173243042E1
1.225021288E1,3.477391189E0,1.050417910E1,-1.225083480E0,1.113242371E1
1.226015488E1,3.226736841E0,1.023825007E1,-7.933829641E-1,1.076397007E1
1.227009588E1,3.128935143E0,1.010720228E1,-6.351479530E-1,1.059948989E1
1.228003788E1,3.154803225E0,1.002843327E1,-5.683973086E-1,1.052831101E1
1.228997988E1,3.252686200E0,9.937568704E0,-5.651018178E-1,1.047160825E1
1.229992087E1,3.537579795E0,9.906442806E0,-6.644448423E-1,1.054009330E1
1.230986288E1,3.986324068E0,9.779139565E0,-9.189893425E-1,1.060032507E1
1.231980387E1,4.502970302E0,9.510291606E0,-1.672357471E0,1.065453741E1
1.232974588E1,4.615357003E0,9.145146437E0,-2.494632697E0,1.054316916E1
1.233968687E1,3.958170894E0,8.438204032E0,-2.739691844E0,9.714747321E0
1.234962888E1,3.249788319E0,7.995407839E0,-3.392246958E0,9.273349452E0
1.235956987E1,2.512878056E0,7.863408115E0,-3.587971977E0,9.001182490E0
1.236951188E1,2.063428317E0,8.322005239E0,-3.645928409E0,9.316989942E0
1.237945388E1,1.828784523E0,8.765362179E0,-3.382965088E0,9.571858741E0
1.238939488E1,1.431484053E0,9.059084194E0,-2.103249317E0,9.409559539E0
1.239933688E1,1.159559874E0,9.159587891E0,-8.818466592E-1,9.274712015E0
1.240927788E1,-4.193710774E-1,8.996787958E0,3.830016299E0,9.787087949E0
1.241921988E1,-1.461512254E1,6.403978756E0,3.941651575E1,4.252381056E1
1.242916088E1,-1.142186686E1,2.387675428E-1,1.319373926E1,1.745253013E1
1.243910288E1,-1.095885158E-1,-1.296665913E1,-5.433407470E-1,1.297850060E1
1.244904488E1,1.907665801E0,-1.746104075E1,2.811117454E1,3.314762838E1
1.245898588E1,8.489553695E0,-4.537857422E0,7.021715455E0,1.191508119E1
1.246892788E1,7.345886845E0,1.768841792E0,-1.154502559E1,1.379777050E1
1.247886888E1,8.860422703E0,-3.028412150E0,-1.088211973E1,1.435614504E1
1.248881088E1,9.684164996E0,-1.313141496E1,-1.465183487E1,2.192928123E1
1.249875188E1,1.622685959E0,-3.178342010E1,-8.217428956E0,3.286860267E1
1.250869388E1,-2.189829040E1,-4.648598190E1,7.759822351E0,5.196822566E1
1.251863488E1,-1.298376575E1,-2.992937794E1,-8.250483266E0,3.365139390E1
1.252857688E1,-7.919265397E0,-1.517251305E1,3.987664250E0,1.757331451E1
1.253851888E1,-7.167357903E0,-6.253656197E0,1.793933714E1,2.030514842E1
1.254845988E1,1.561161848E0,-3.218858303E0,8.133314420E0,8.885329400E0
1.255840188E1,7.010683513E0,-5.945547109E0,-3.329486454E0,9.776742494E0
1.256834288E1,5.863667378E0,-5.190262263E0,-4.542065663E0,9.052722130E0
1.257828488E1,4.011571176E0,-1.400499950E0,-2.684345609E0,5.025914321E0
1.258822588E1,3.114102218E0,1.517968174E0,7.588961593E-1,3.546517078E0
1.259816788E1,1.673697945E0,3.317844062E0,3.200810287E0,4.904542846E0
1.260810888E1,-9.731427455E-1,2.967406980E0,4.185834575E0,5.222424923E0
1.261805088E1,-5.883217544E0,-1.791000400E0,4.642144268E0,7.705156358E0
1.262799288E1,-5.355228589E0,-9.035066171E0,6.616625032E0,1.241332432E1
1.263793387E1,2.931770539E-1,-1.221541588E1,4.365657506E0,1.297541149E1
1.264787588E1,2.153656994E0,-7.323561591E0,1.985751858E0,7.887712169E0
1.265781687E1,1.496752721E0,-7.490873820E-1,7.696736741E-1,1.842226419E0
1.266775888E1,1.351161437E0,2.929124089E0,-2.215567752E-1,3.233340775E0
1.267769987E1,1.180351696E0,4.260577193E0,-3.289958545E-1,4.433281676E0
1.268764188E1,6.596349227E-1,3.873902577E0,-1.798965331E-1,3.933777087E0
1.269758388E1,-6.901673287E-2,1.862800700E0,-8.029044970E-1,2.029641690E0
1.270752488E1,-1.064727100E0,-3.869026583E-1,-1.068241861E0,1.557073581E0
1.271746688E1,-1.656683425E0,-2.301907884E0,-9.574931844E-1,2.993354820E0
1.272740788E1,-9.928408456E-1,-3.589577038E0,-7.586106690E-1,3.800827068E0
1.273734988E1,-1.710573703E-2,-3.336874411E0,-1.473650372E-1,3.340170638E0
1.274729133E1,7.399961311E-1,-2.396608804E0,-1.704806887E-2,2.508309923E0
1.275723333E1,1.293636237E0,-1.528080933E0,-4.399385854E-1,2.049895610E0
1.276717433E1,1.816745398E0,-7.038691092E-1,-1.783095257E-1,1.956473831E0
1.277711633E1,2.502396045E0,-1.918412983E-2,-1.063713046E-1,2.504729297E0
1.278705833E1,2.481533180E0,4.785256040E-1,-3.319966456E-1,2.548963603E0
1.279699933E1,2.106741567E0,9.440130866E-1,-4.437404450E-1,2.350835239E0
1.280694133E1,1.357781362E0,1.448201535E0,-4.715802082E-1,2.040403344E0
1.281688233E1,1.656872874E-1,1.797092029E0,-1.648047964E-1,1.812223127E0
1.282682433E1,-5.591774189E-1,1.625417193E0,3.976106644E-2,1.719372380E0
1.283676533E1,-1.026100101E0,1.052374272E0,-5.905336976E-2,1.471006569E0
1.284670733E1,-1.467401453E0,4.514120650E-1,-1.434743730E-1,1.541954854E0
1.285664933E1,-1.675984060E0,-5.198759437E-2,-9.074169718E-2,1.679243680E0
1.286659033E1,-1.740073491E0,-1.901081836E-1,9.336958207E-2,1.752916071E0
1.287653233E1,-1.901877350E0,1.177488899E-1,4.854264879E-1,1.966377667E0
1.288647333E1,-1.750410345E0,6.978271812E-1,5.983314713E-1,1.977093751E0
1.289641533E1,-1.400124266E0,1.184912524E0,6.395052981E-1,1.942506803E0
1.290635633E1,-8.404007176E-1,1.430403196E0,7.378250599E-1,1.815685129E0
1.291629833E1,-3.423777191E-1,1.441270831E0,8.648032681E-1,1.715333438E0
1.292623933E1,-2.404456937E-1,1.395588874E0,1.074100771E0,1.777406791E0
1.293618133E1,-5.317317581E-1,1.108673603E0,1.102660911E0,1.651592233E0
1.294612333E1,-4.880036482E-1,8.478953862E-1,8.635004354E-1,1.304878212E0
1.295606433E1,-3.596023008E-1,7.264229894E-1,6.320056593E-1,1.027830398E0
1.296600633E1,-2.991612406E-1,8.875897944E-1,5.682862846E-1,1.095564874E0
1.297594733E1,-2.841097035E-1,1.197462988E0,6.019639079E-1,1.370035210E0
1.298588933E1,-4.501864155E-1,1.382890475E0,6.129952284E-1,1.578232247E0
1.299583033E1,-5.214370041E-1,1.370020169E0,4.989521941E-1,1.548484777E0
1.300577233E1,-4.444956860E-1,9.377659214E-1,3.037266004E-1,1.081309940E0
1.301571333E1,-4.393035778E-1,4.842851114E-1,-1.762931865E-2,6.540875289E-1
1.302565533E1,-6.022748335E-1,1.931376261E-1,-2.073773138E-1,6.656143538E-1
1.303559733E1,-7.993573567E-1,2.178052747E-1,-1.676349950E-1,8.452885975E-1
1.304553833E1,-9.750725459E-1,2.485557818E-1,-2.238688191E-1,1.030855807E0
1.305548033E1,-1.027165536E0,2.489183092E-1,-3.859560307E-1,1.125162842E0
1.306542133E1,-8.963153020E-1,3.794784486E-1,-5.957751417E-1,1.141198069E0
1.307536333E1,-6.843437943E-1,4.736583817E-1,-7.491604722E-1,1.119785740E0
1.308530433E1,-5.875262553E-1,5.497517073E-1,-5.711957860E-1,9.867515728E-1
1.309524633E1,-7.523985871E-1,4.521926683E-1,-1.150053581E-1,8.853293599E-1
1.310518833E1,-8.942989627E-1,2.987488657E-1,1.210583957E-1,9.506190902E-1
1.311512933E1,-7.193736593E-1,2.779532433E-1,1.588466116E-1,7.873936202E-1
1.312507133E1,-3.983933142E-1,2.851628602E-1,3.289655221E-1,5.901299893E-1
1.313501233E1,-8.078308493E-2,2.386348110E-1,5.565800858E-1,6.109450644E-1
1.314495433E1,2.959124545E-1,1.850374782E-1,6.751838386E-1,7.600501727E-1
1.315489533E1,6.452765731E-1,1.670438415E-1,6.403379416E-1,9.242933410E-1
1.316483733E1,8.276792228E-1,1.634249997E-1,5.253957152E-1,9.938819266E-1
1.317477833E1,6.833284253E-1,1.497471929E-1,3.440560162E-1,7.795745640E-1
1.318472033E1,2.993031818E-1,3.673045456E-1,-1.605738974E-1,5.002789226E-1
1.319466233E1,-2.888278218E-1,7.838648665E-1,-7.293793416E-1,1.108990470E0
1.320460333E1,-1.056718095E0,9.934594810E-1,-7.976140094E-1,1.655235023E0
1.321454533E1,-1.876321802E0,8.890621233E-1,-5.339466834E-1,2.143854944E0
1.322448633E1,-2.203889254E0,7.569764453E-1,-1.221436481E-1,2.333465289E0
1.323442833E1,-1.954815117E0,6.463716835E-1,-7.610731325E-3,2.058921178E0
1.324436933E1,-1.612509172E0,4.847254068E-1,-4.834992456E-1,1.751832204E0
1.325431133E1,-1.410291405E0,3.888737547E-1,-7.398458576E-1,1.639364675E0
1.326425333E1,-1.368691097E0,3.694843876E-1,-4.429476357E-1,1.485273254E0
1.327419433E1,-1.380730514E0,4.375798917E-1,-2.623622274E-1,1.471980588E0
1.328413633E1,-1.368019837E0,6.488216668E-1,-2.136607683E-1,1.529084286E0
1.329407733E1,-1.277322213E0,9.238606578E-1,-2.031392884E-1,1.589445224E0
1.330401933E1,-1.055686062E0,1.258905530E0,-1.489484632E-1,1.649697499E0
1.331396033E1,-8.049340656E-1,1.641294138E0,-2.312620568E-1,1.842619721E0
1.332390233E1,-7.296237552E-1,1.780726258E0,-3.454476535E-1,1.955165187E0
1.333384333E1,-8.645282297E-1,1.593380883E0,-1.985375297E-1,1.823647129E0
1.334378533E1,-1.108776952E0,1.391108152E0,-5.341969442E-1,1.857399956E0
1.335372733E1,-1.357275285E0,1.304748870E0,-7.833082116E-1,2.039151188E0
1.336366833E1,-1.593108549E0,1.442487051E0,-4.697308069E-1,2.199866081E0
1.337361033E1,-1.602787299E0,1.722161715E0,8.908583879E-2,2.354294881E0
1.338355133E1,-1.512816777E0,1.930688628E0,1.436304790E0,2.842383617E0
1.339349333E1,-1.136109031E0,2.310252446E0,1.501267941E0,2.980237495E0
1.340343433E1,-2.497031517E-1,2.670600559E0,6.166263127E-1,2.752214930E0
1.341337633E1,8.689361532E-1,2.765459354E0,8.570568037E-1,3.022806947E0
1.342331733E1,1.651719870E0,2.474241702E0,1.400501704E0,3.288077790E0
1.343325933E1,1.932987461E0,2.199210312E0,3.369037020E-1,2.947281905E0
1.344320133E1,1.347549904E0,2.047752224E0,-7.996815848E-1,2.578501610E0
1.345314233E1,2.843321170E-1,2.015460391E0,-1.167258611E0,2.346362718E0
1.346308433E1,-6.369374934E-1,1.976708554E0,-8.913869762E-1,2.260008146E0
1.347302533E1,-1.148747495E0,1.876971427E0,-3.472825098E-1,2.227834753E0
1.348296733E1,-1.869609198E-1,1.655107600E0,2.375197470E-1,1.682483635E0
1.349290833E1,1.217671842E0,1.345046126E0,1.727223650E0,2.505030006E0
1.350285033E1,1.251791515E0,1.020925022E0,2.065842340E0,2.622398610E0
1.351279133E1,6.913505128E-1,1.940217251E-1,1.246194268E0,1.438266357E0
1.352273333E1,4.865769276E-1,-5.024565035E-1,1.240008498E0,1.423671563E0
1.353267533E1,4.849704051E-1,-5.186626464E-1,7.094111001E-1,1.003728720E0
1.354261633E1,1.252824426E-2,9.482137263E-2,-6.114106329E-1,6.188465170E-1
1.355255833E1,-4.114121398E-1,7.754115468E-1,-1.656409775E0,1.874624325E0
1.356249933E1,-1.374540067E-1,1.179099807E0,-1.383802641E0,1.823205888E0
1.357244133E1,1.241770265E-1,1.053440219E0,1.955917025E-1,1.078615939E0
1.358238233E1,1.521799269E-1,3.089692140E-1,3.512644637E-1,4.919425056E-1
1.359232433E1,-1.238548449E-1,-6.703616399E-1,3.230247144E-1,7.543670969E-1
1.360226633E1,-5.541023281E-1,-1.791768140E0,7.543469524E-1,2.021509778E0
1.361220733E1,-1.070728097E0,-2.591449724E0,2.878677821E-1,2.818676674E0
1.362214933E1,-1.187873262E0,-2.526336885E0,3.027769943E-1,2.808041106E0
1.363209033E1,-1.022511957E0,-1.904166827E0,5.355124947E-1,2.226691635E0
1.364203233E1,-5.709370467E-1,-1.354436170E0,3.101217367E-1,1.502212349E0
1.365197333E1,-1.195472011E-1,-1.120426506E0,8.068368226E-1,1.385868950E0
1.366191533E1,2.203979301E-1,-1.021466475E0,7.557456064E-1,1.289620265E0
1.367185633E1,3.915611351E-1,-9.310527331E-1,3.996437413E-1,1.086229457E0
1.368179833E1,4.200300586E-1,-7.415228391E-1,8.327212769E-1,1.191514203E0
1.369174033E1,2.091654289E-1,-4.435569155E-1,4.782262266E-1,6.849768155E-1
1.370168133E1,-1.085050267E-1,-1.801538837E-1,1.938433484E-1,2.860139968E-1
1.371162333E1,-3.560626888E-1,-1.091423732E-1,2.554671542E-1,4.516150605E-1
1.372156433E1,-2.805108154E-1,-4.649933928E-1,5.433759034E-1,7.682203755E-1
1.373150633E1,-2.386196083E-1,-7.656461120E-1,9.880016899E-1,1.272517436E0
1.374144733E1,2.983266968E-1,-1.185611266E0,8.676426029E-1,1.499158624E0
1.375138921E1,3.437700874E-1,-1.194576802E0,1.897234003E-1,1.257452416E0
1.376133021E1,2.279244661E-3,-1.110437708E0,-1.514838159E-2,1.110543368E0
1.377127221E1,-2.857785720E-1,-1.098153877E0,7.843922853E-2,1.137437490E0
1.378121421E1,-5.734352696E-1,-1.164035625E0,3.890743142E-1,1.354690285E0
1.379115521E1,-7.684393269E-1,-1.298640869E0,1.094994627E0,1.864398117E0
1.380109721E1,-1.246210640E0,-1.236925846E0,1.434304458E0,2.267213220E0
1.381103821E1,-1.603510015E0,-9.617640638E-1,1.662937022E0,2.502317730E0
1.382098021E1,-1.823081734E0,-7.263843977E-1,1.463386754E0,2.448011865E0
1.383092121E1,-2.336697648E0,-9.501912546E-1,1.333990211E0,2.853515236E0
1.384086321E1,-2.946351156E0,-1.823928995E0,9.633591843E-1,3.596632179E0
1.385080521E1,-2.597403944E0,-2.967841428E0,1.497280140E0,4.218582441E0
1.386074621E1,-2.427519525E0,-3.926353855E0,2.365089973E0,5.186786695E0
1.387068821E1,-2.291027970E0,-4.522015561E0,2.153045375E0,5.507543761E0
1.388062921E1,-1.790876439E0,-4.934322032E0,2.321617094E0,5.739745488E0
1.389057121E1,-1.652859346E0,-5.408405507E0,2.592092918E0,6.221072242E0
1.390051221E1,-1.073855773E0,-6.260694491E0,3.227830271E0,7.125191224E0
1.391045421E1,-3.207490146E-1,-7.103459530E0,3.621484709E0,7.979797536E0
1.392039521E1,5.096082330E-1,-7.555990752E0,3.570222169E0,8.372525493E0
1.393033721E1,6.571264672E-1,-7.282113018E0,3.682181146E0,8.186540368E0
1.394027921E1,1.121513504E-1,-6.950297563E0,3.755374253E0,7.900762616E0
1.395022021E1,1.860116243E-1,-7.300711257E0,3.220499032E0,7.981641385E0
1.396016221E1,4.292943871E-1,-8.565590887E0,3.503718277E0,9.264431050E0
1.397010321E1,5.362621808E-1,-1.046220311E1,3.786180893E0,1.113913986E1
1.398004521E1,1.584770858E-1,-1.245148435E1,3.048670413E0,1.282025619E1
1.398998621E1,8.636483699E-2,-1.416458639E1,2.634832556E0,1.440782111E1
1.399992821E1,-4.988844395E-1,-1.679264202E1,3.360997099E0,1.713295110E1
1.400986921E1,-3.211676460E0,-1.976592077E1,5.123791115E0,2.067026186E1
1.401981121E1,-6.080199130E0,-1.887310591E1,6.223364697E0,2.078204071E1
1.402975321E1,-7.782097319E0,-1.529765984E1,4.501121120E0,1.774371794E1
1.403969421E1,-7.705774782E0,-1.148436307E1,3.237681659E0,1.420394813E1
1.404963621E1,-6.237024962E0,-7.705454940E0,2.418199064E0,1.020402876E1
1.405957721E1,-4.436224628E0,-3.990777308E0,1.951350349E0,6.278069819E0
1.406951921E1,-3.041661941E0,-9.759634423E-1,1.571600590E0,3.560075900E0
1.407946021E1,-2.202243263E0,1.043387101E0,-2.606098169E-1,2.450805890E0
1.408940221E1,-1.818707139E0,2.612282184E0,-2.705223677E0,4.177313612E0
1.409934321E1,-1.332201986E0,4.312383524E0,-4.775826820E0,6.571144163E0
1.410928521E1,-2.784002629E-1,6.220780812E0,-5.267947201E0,8.156401677E0
1.411922721E1,6.151026745E-1,7.909487683E0,-3.033391639E0,8.493515852E0
1.412916821E1,6.778610594E-1,8.927781458E0,-8.687407100E-1,8.995525988E0
1.413911021E1,-3.274654920E-1,9.913803281E0,1.342164399E-2,9.919219187E0
1.414905121E1,-2.056296176E0,1.111687726E1,-1.158439840E0,1.136465119E1
1.415899321E1,-3.250775329E0,1.219943544E1,-3.073242753E0,1.299379030E1
1.416893421E1,-3.331602853E0,1.262962211E1,-4.301122956E0,1.375160321E1
1.417887621E1,-2.771921404E0,1.292617769E1,-5.126636955E0,1.417928152E1
1.418881721E1,-2.115836034E0,1.299542743E1,-4.683291124E0,1.397465964E1
1.419875921E1,-1.316893245E0,1.276005595E1,-3.401204892E0,1.327107495E1
1.420870121E1,-5.666538882E-1,1.254323652E1,-2.133810959E0,1.273605230E1
1.421864221E1,-1.339351523E-1,1.238485883E1,-1.411626617E0,1.246576739E1
1.422858421E1,-9.521459788E-2,1.246689527E1,-1.087014347E0,1.251455727E1
1.423852521E1,-2.402732740E-1,1.280251025E1,-1.021765121E0,1.284546627E1
1.424846721E1,-1.531404052E-1,1.251759999E1,-9.396380536E-1,1.255375167E1
1.425840821E1,-1.012449045E-1,1.253709226E1,-8.305792956E-1,1.256498289E1
1.426835021E1,-7.818312049E-2,1.262786561E1,-7.182965291E-1,1.264851977E1
1.427829221E1,1.393396606E-1,1.268395561E1,-2.787863253E-1,1.268778417E1
1.428823321E1,1.643301195E0,1.274478302E1,2.575341815E0,1.310581240E1
1.429817521E1,2.718207712E0,1.251844432E1,3.711085687E0,1.333687589E1
1.430811621E1,2.258186207E0,1.199304978E1,9.317023587E-1,1.223931032E1
1.431805821E1,2.359031527E0,1.176040778E1,-4.663196875E-1,1.200373587E1
1.432799921E1,2.767074063E0,1.141326911E1,-7.642533052E-1,1.176875073E1
1.433794121E1,3.142185518E0,1.051921229E1,-1.027330062E0,1.102644839E1
1.434788221E1,3.290092592E0,9.447073849E0,-1.453068173E0,1.010857659E1
1.435782421E1,3.573490763E0,8.695086249E0,-1.855236303E0,9.582080298E0
1.436776621E1,4.241098656E0,8.129702010E0,-2.321586689E0,9.458791537E0
1.437770721E1,4.804064779E0,7.497947781E0,-2.481127968E0,9.244147084E0
1.438764921E1,4.768354079E0,6.989858655E0,-2.453430877E0,8.809917576E0
1.439759021E1,4.540790970E0,6.875146224E0,-2.391712492E0,8.579435114E0
1.440753221E1,3.954316410E0,7.309960967E0,-2.231789244E0,8.605407070E0
1.441747321E1,3.155756321E0,8.065693125E0,-2.166832671E0,8.928010269E0
1.442741521E1,2.725894462E0,8.399952132E0,-2.088827160E0,9.074849604E0
1.443735621E1,2.570133407E0,8.465548536E0,-1.840761960E0,9.036564742E0
1.444729821E1,2.603211983E0,8.410335032E0,-1.588417328E0,8.946145404E0
1.445724021E1,2.649813123E0,7.718372024E0,1.350246494E0,8.271513881E0
1.446718121E1,2.028286259E0,4.099401033E0,6.811658911E0,8.204738332E0
1.447712321E1,8.643029657E-1,-1.794472477E0,-1.808674487E0,2.690437601E0
1.448706421E1,7.592159289E-1,-5.941237711E0,-2.920532191E0,6.663649348E0
1.449700621E1,-6.346550328E-1,-1.979550067E1,1.629218176E0,1.987256867E1
1.450694721E1,1.144475227E0,-4.377016541E1,8.745399785E0,4.464996328E1
1.451688921E1,4.269721654E-1,-5.878768631E1,-3.137968506E0,5.887292428E1
1.452683021E1,-4.178698925E0,-5.013605248E1,-2.753783868E1,5.735344664E1
1.453677221E1,-1.086743270E1,-2.899397547E1,-2.603827578E1,4.045668687E1
1.454671421E1,-1.958409693E1,-1.017304894E1,4.900365497E0,2.260622390E1
1.455665521E1,-1.269791642E1,6.213695741E-1,9.178982520E0,1.568046242E1
1.456659721E1,-4.166720904E0,4.938900987E0,-2.823077817E0,7.051529934E0
1.457653821E1,-2.520280047E0,6.577127091E0,-3.663677047E0,7.939328800E0
1.458648021E1,-1.595657204E0,8.748450862E0,-3.922865406E0,9.719587820E0
1.459642121E1,-4.911646530E-1,8.266772439E0,-2.762629886E0,8.729999609E0
1.460636321E1,-6.018398738E-1,4.517665232E0,-1.215466565E-1,4.559197734E0
1.461630421E1,-2.603787057E0,-1.122036830E0,5.600336852E0,6.277136811E0
1.462624621E1,-7.098961852E0,-8.122958416E0,5.316848634E0,1.202691117E1
1.463618821E1,-1.170277645E1,-1.115386557E1,-2.641217716E0,1.638107826E1
1.464612921E1,-1.085183116E1,-9.042038391E0,-2.910928724E0,1.442200415E1
1.465607121E1,-6.611526260E0,-5.971671299E0,1.961749622E0,9.122587307E0
1.466601221E1,-1.564984465E0,-4.079773099E0,3.930433457E0,5.877246982E0
1.467595421E1,9.143957698E-1,-3.248244655E0,2.764750671E0,4.362460227E0
1.468589521E1,1.542334106E0,-2.832152696E0,1.501860849E0,3.557452655E0
1.469583721E1,1.989563950E0,-2.241802601E0,8.734067881E-1,3.121999844E0
1.470577821E1,2.703203172E0,-1.471760552E0,5.056420301E-1,3.119144173E0
1.471572021E1,2.993537309E0,-8.348800689E-1,2.353018798E-1,3.116674081E0
1.472566221E1,2.464399669E0,-8.266688240E-1,-1.860437840E-1,2.606004482E0
1.473560321E1,1.513516104E0,-7.465222085E-1,-5.340694018E-1,1.770100712E0
1.474554521E1,7.481793094E-1,-4.264491320E-1,-3.189223079E-1,9.183368552E-1
1.475548533E1,2.909562814E-1,-3.096685410E-3,1.436362678E-1,3.244942597E-1
1.476542733E1,4.081444234E-2,6.098470509E-1,5.018770810E-1,7.908601954E-1
1.477536833E1,-1.386518088E-1,1.289658961E0,4.393644254E-1,1.369483719E0
1.478531033E1,-4.236822295E-1,1.855341992E0,3.995565812E-1,1.944594045E0
1.479525233E1,-6.149309126E-1,2.247647477E0,4.856615460E-1,2.380320640E0
1.480519333E1,-8.254426628E-1,2.355460194E0,5.678196037E-1,2.559681116E0
1.481513533E1,-1.164943113E0,2.273020300E0,5.610824418E-1,2.615057791E0
1.482507633E1,-1.436980144E0,2.275346323E0,3.899706559E-1,2.719225981E0
1.483501833E1,-1.278931074E0,2.262653772E0,1.368973517E-1,2.602692388E0
1.484495933E1,-4.113902128E-1,2.248549703E0,-1.789868160E-1,2.292870243E0
1.485490133E1,5.961420545E-1,2.164938027E0,-4.991780062E-1,2.300330562E0
1.486484233E1,1.165972516E0,2.010519494E0,-7.127937144E-1,2.430998853E0
1.487478433E1,1.609793725E0,1.984713977E0,-5.324603212E-1,2.610371507E0
1.488472633E1,1.744413294E0,1.953427280E0,-9.289529979E-2,2.620588754E0
1.489466733E1,1.696155054E0,1.784290136E0,4.699968553E-1,2.506298126E0
1.490460933E1,1.586434391E0,1.604554328E0,1.033984779E0,2.482034083E0
1.491455033E1,1.234106611E0,1.327218550E0,1.420389254E0,2.302614567E0
1.492449233E1,6.417254859E-1,1.130001322E0,1.681943396E0,2.125475988E0
1.493443333E1,-4.547350377E-2,9.969093382E-1,1.698297474E0,1.969799578E0
1.494437533E1,-4.112776539E-1,1.115842874E0,1.546064630E0,1.950530817E0
1.495431633E1,-6.333315155E-1,1.356784996E0,1.074672629E0,1.843066899E0
1.496425833E1,-7.615255791E-1,1.578933583E0,4.318426037E-1,1.805392063E0
1.497420033E1,-6.754308835E-1,1.740656458E0,4.772025984E-2,1.867717593E0
1.498414133E1,-2.704968739E-1,1.731069948E0,-1.086299378E-2,1.752110079E0
1.499408333E1,1.597646427E-1,1.700676706E0,2.399598267E-1,1.724936728E0
1.500402433E1,3.304787815E-1,1.809581097E0,4.929647183E-1,1.904419646E0
1.501396633E1,1.510160387E-1,1.981762303E0,5.946600777E-1,2.074562189E0
1.502390733E1,-8.046616584E-2,2.153496780E0,4.949205389E-1,2.211101428E0
1.503384933E1,-2.864781913E-1,2.398826069E0,1.281183056E-1,2.419266534E0
1.504379033E1,-5.118608728E-1,2.701938127E0,-5.269931746E-1,2.800034464E0
1.505373233E1,-8.173261428E-1,3.076817740E0,-1.241777281E0,3.417139190E0
1.506367433E1,-1.371714107E0,3.505777082E0,-2.154479113E0,4.337493837E0
1.507361533E1,-2.038269502E0,3.974642501E0,-3.027993490E0,5.396394180E0
1.508355733E1,-2.634364779E0,4.526485173E0,-3.271089726E0,6.174866298E0
1.509349833E1,-3.825528269E0,4.969674298E0,-3.584108137E0,7.223445182E0
1.510344033E1,-4.484554204E0,5.086196442E0,-3.516012633E0,7.638256705E0
1.511338133E1,-4.528603619E0,5.235587540E0,-1.704390272E0,7.129135559E0
1.512332333E1,-5.320651079E0,5.085881277E0,3.380649006E0,8.099648386E0
1.513326533E1,-5.279490189E0,4.578461657E0,1.165968715E1,1.359351434E1
1.514320633E1,-1.920795431E0,2.937641144E0,8.411716729E0,9.114612933E0
1.515314833E1,1.161636513E0,7.790882760E-1,-1.770747399E0,2.256529256E0
1.516308933E1,2.259373191E0,1.114526081E-1,-2.457290624E0,3.339979957E0
1.517303133E1,1.792506058E0,1.123144292E0,1.236237044E0,2.450063897E0
1.518297233E1,9.809917554E-1,2.157850032E0,4.486942426E-1,2.412465152E0
1.519291433E1,8.551240066E-1,2.275378482E0,-3.214514991E0,4.030098129E0
1.520285533E1,1.581049983E0,1.076334992E0,-3.018740271E0,3.573654836E0
1.521279733E1,2.378205863E0,-4.582989156E-1,-1.677713521E0,2.946289816E0
1.522273933E1,1.905714878E0,-2.257373151E0,-1.506716377E0,3.316274563E0
1.523268033E1,1.061400911E0,-4.109920174E0,-1.800894474E0,4.610990852E0
1.524262233E1,3.970405608E-2,-4.984615104E0,-2.534061057E0,5.591907508E0
1.525256333E1,-1.360627202E0,-4.362849088E0,-3.152191858E0,5.551762969E0
1.526250533E1,-3.018936445E0,-1.926919513E0,-3.233537738E0,4.825221484E0
1.527244633E1,-3.840765528E0,-1.050011412E0,-3.251122069E0,5.140408400E0
1.528238833E1,-3.787320223E0,-1.701813405E0,-2.883492419E0,5.055145088E0
1.529232933E1,-4.248857912E0,-2.602119139E0,-2.114758392E0,5.412579849E0
1.530227133E1,-4.460831758E0,-4.042232805E0,-2.316954525E0,6.450344510E0
1.531221333E1,-3.525824845E0,-5.454020221E0,-2.687125960E0,7.028401193E0
1.532215433E1,-2.173583136E0,-6.808773310E0,-1.888030851E0,7.392463603E0
1.533209633E1,-1.255800658E0,-8.294318672E0,-1.629448848E0,8.545634036E0
1.534203733E1,-1.064700787E0,-9.544914140E0,-2.074410265E0,9.825586580E0
1.535197933E1,-1.426713018E0,-1.059119503E1,-2.465598348E0,1.096759305E1
1.536192033E1,-1.820717412E0,-1.139763833E1,-2.253403476E0,1.176005947E1
1.537186233E1,-2.036021540E0,-1.171386511E1,-2.217176467E0,1.209445704E1
1.538180333E1,-2.512314970E0,-1.168414021E1,-2.553433467E0,1.222091982E1
1.539174533E1,-3.638645994E0,-1.172960114E1,-2.861313930E0,1.260993279E1
1.540168733E1,-5.276627977E0,-1.213360398E1,-2.903851839E0,1.354619887E1
1.541162833E1,-6.977847889E0,-1.242963915E1,-2.831690181E0,1.453288546E1
1.542157033E1,-8.288503616E0,-1.237703877E1,-2.752211902E0,1.514810388E1
1.543151133E1,-9.030665556E0,-1.159331891E1,-2.961929308E0,1.499103029E1
1.544145333E1,-8.988798323E0,-9.882325380E0,-3.638061565E0,1.384537259E1
1.545139433E1,-7.900682361E0,-7.441747268E0,-4.328561600E0,1.168489750E1
1.546133633E1,-5.934049729E0,-4.645405844E0,-4.896916809E0,8.987354220E0
1.547127733E1,-4.280021524E0,-2.181090961E0,-5.555799780E0,7.344566238E0
1.548121933E1,-3.009202000E0,-1.110684460E-1,-5.621937636E0,6.377602658E0
1.549116133E1,-1.518505825E0,1.756240457E0,-5.441593133E0,5.916179199E0
1.550110233E1,3.732520410E-1,3.226674276E0,-5.070832298E0,6.021966802E0
1.551104433E1,2.001380296E0,4.268883748E0,-4.358878244E0,6.420958736E0
1.552098533E1,3.512869462E0,5.230211610E0,-2.570138962E0,6.804482319E0
1.553092733E1,5.224805274E0,5.995357200E0,4.444317321E-1,7.964949320E0
1.554086833E1,9.206315914E0,6.751793947E0,9.161601087E0,1.463823448E1
1.555081033E1,1.239403779E1,7.714928598E0,1.495222154E1,2.089739757E1
1.556075233E1,9.155580794E0,8.971672997E0,7.896516219E0,1.505558184E1
1.557069333E1,4.809550636E0,1.053117687E1,2.415230432E0,1.182669868E1
1.558063533E1,4.207202640E0,1.115836676E1,-1.902520251E0,1.207597972E1
1.559057633E1,3.524427653E0,1.165986023E1,-2.843118564E0,1.250828741E1
1.560051833E1,2.908286075E0,1.245824958E1,-3.148094130E-1,1.279707839E1
1.561045933E1,3.261730088E0,1.332969053E1,2.216239743E0,1.390076442E1
1.562040133E1,4.715893152E0,1.350001758E1,3.713634489E0,1.477434276E1
1.563034233E1,6.921895882E0,1.251166389E1,4.405081773E0,1.496192238E1
1.564028433E1,8.487288483E0,1.109536067E1,4.580776570E0,1.470117710E1
1.565022533E1,9.032941293E0,9.893606998E0,4.036273323E0,1.399174722E1
1.566016733E1,8.416348894E0,8.890506628E0,2.306164073E0,1.245770563E1
1.567010933E1,7.362508140E0,8.378347254E0,8.476475374E-1,1.118578273E1
1.568005033E1,6.132225316E0,8.431323028E0,1.833254866E-1,1.042712825E1
1.568999233E1,5.441632310E0,8.644040056E0,2.248010297E-1,1.021671798E1
1.569993333E1,5.258043187E0,8.706814009E0,2.333647156E-1,1.017399073E1
1.570987533E1,5.349459726E0,8.839518322E0,-5.740398717E-1,1.034810733E1
1.571981633E1,5.182274966E0,8.880901991E0,-2.225276030E0,1.052037297E1
1.572975833E1,4.318955210E0,8.334239953E0,-3.965719650E0,1.019018459E1
1.573970033E1,2.751504681E0,7.142451103E0,-4.633245975E0,8.947198111E0
1.574964133E1,1.234795413E0,5.596812150E0,-4.559408505E0,7.323744389E0
1.575958333E1,6.814529309E-1,4.765298324E0,-4.352600673E0,6.489805762E0
1.576952433E1,9.843495190E-2,5.741337780E0,-3.555581911E0,6.753873826E0
1.577946633E1,-8.856254223E-1,6.720955732E0,-2.887791291E0,7.368508457E0
1.578940733E1,-9.696788549E-1,7.410523721E0,-2.179561329E0,7.785025786E0
1.579934933E1,-1.267126130E0,7.689969758E0,-3.078962499E0,8.379812264E0
1.580929033E1,-4.622459031E0,7.190174323E0,3.887057058E0,9.390151589E0
1.581923233E1,-1.493453020E1,4.186751418E0,2.773669780E1,3.177882133E1
1.582917433E1,-6.018012237E0,7.761611599E-1,-6.360693573E0,8.790751968E0
1.583911533E1,-3.565399678E0,-3.299201385E0,4.231598393E0,6.442300024E0
1.584905733E1,-4.348356764E0,-9.786309421E0,1.226722923E1,1.628388687E1
1.585899833E1,3.316170005E0,-1.345591204E1,2.674632214E0,1.411425555E1
1.586894033E1,5.681369321E0,-1.454626690E1,4.547084913E0,1.626492604E1
1.587888133E1,3.069846690E0,-1.661261210E1,3.684571780E0,1.729100658E1
1.588882333E1,-2.065590325E0,-1.958765320E1,-1.635676425E0,1.976406483E1
1.589876433E1,-8.121354525E0,-1.907781459E1,-7.946050322E-1,2.074971821E1
1.590870633E1,-1.163749112E1,-1.235460534E1,5.636145201E0,1.788389234E1
1.591864833E1,-7.940569142E0,-6.762325952E0,8.308109915E-1,1.046288380E1
1.592858933E1,-3.529600393E0,-6.146927555E0,-1.700639576E0,7.289373928E0
1.593853133E1,-6.183179122E-1,-7.913434553E0,5.578498086E-1,7.957132642E0
1.594847233E1,-1.797026541E0,-1.042308524E1,7.669886327E-1,1.060463492E1
1.595841433E1,-5.786351985E0,-1.025351248E1,-1.712639232E-1,1.177479166E1
1.596835533E1,-6.661457389E0,-7.184727641E0,3.179632549E-1,9.802878478E0
1.597829733E1,-5.332608050E0,-3.391847008E0,1.445356865E0,6.483085007E0
1.598823833E1,-2.678030616E0,-7.899401236E-1,2.450955166E0,3.715243546E0
1.599818033E1,-2.731404585E0,-3.838439798E-1,1.611420128E0,3.194461150E0
1.600812233E1,-2.204606708E0,-2.672368172E0,2.366542129E-1,3.472441159E0
1.601806333E1,3.187112600E-1,-5.237748086E0,4.081423768E-1,5.263284343E0
1.602800533E1,1.543938582E0,-6.195895647E0,-4.189038849E-1,6.399089754E0
1.603794633E1,1.759030164E0,-5.799219952E0,2.095175774E-1,6.063747751E0
1.604788833E1,1.527530125E0,-4.777131334E0,2.065642365E0,5.424132230E0
1.605782933E1,9.837811697E-1,-3.295360934E0,2.296054237E0,4.135105093E0
1.606777133E1,4.750687301E-1,-2.928973816E0,1.651398419E0,3.395834898E0
1.607771233E1,3.764612854E-1,-2.989273227E0,1.275087115E0,3.271593599E0
1.608765433E1,3.566170049E-1,-2.948131049E0,1.055318345E0,3.151562974E0
1.609759633E1,1.934697479E-1,-2.817280303E0,6.046877602E-1,2.887931117E0
1.610753733E1,-1.833043635E-2,-2.479159210E0,3.420178230E-1,2.502707052E0
1.611747933E1,-4.151990891E-2,-1.973443469E0,2.578035919E-1,1.990644549E0
1.612742033E1,1.088102514E-1,-1.438135554E0,3.177727818E-1,1.476838882E0
1.613736233E1,3.418369979E-1,-9.448650259E-1,3.360994175E-2,1.005361665E0
1.614730333E1,2.925724518E-1,-4.614493954E-1,-4.655786991E-2,5.483628537E-1
1.615724533E1,2.615173048E-1,-5.846747875E-2,-6.746634364E-2,2.763357637E-1
1.616718633E1,1.230774575E-1,3.952881503E-1,-1.859696706E-1,4.538562555E-1
1.617712833E1,2.044537425E-2,8.882727492E-1,-2.368588655E-1,9.195371729E-1
1.618707033E1,-2.350621623E-1,1.419951882E0,-1.822239442E-1,1.450766395E0
1.619701133E1,-4.476204380E-1,1.942861362E0,-2.790852642E-1,2.013197186E0
1.620695333E1,-4.882834375E-1,2.340394843E0,-3.125593313E-1,2.411132943E0
1.621689433E1,-5.438764250E-1,2.811916067E0,-1.776313218E-1,2.869534182E0
1.622683633E1,-6.206708318E-1,3.250154940E0,-7.971509099E-2,3.309848019E0
1.623677733E1,-6.757349387E-1,3.627729535E0,-2.543421134E-1,3.698882155E0
1.624671933E1,-4.291341734E-1,3.911144078E0,-7.461411162E-1,4.004738531E0
1.625666033E1,-2.307539338E-1,4.188447695E0,-9.528903294E-1,4.301667288E0
