"Time (s)","Linear Acceleration x (m/s^2)","Linear Acceleration y (m/s^2)","Linear Acceleration z (m/s^2)","Absolute acceleration (m/s^2)"
6.724375009E-3,-8.502640933E-2,-1.660012829E-1,-2.426912000E0,2.434068152E0
1.666637501E-2,-3.660459325E-2,-5.827744424E-2,-2.600096002E0,2.601006609E0
2.660837502E-2,-7.592463344E-3,1.184786224E-1,-2.290324550E0,2.293399524E0
3.654937501E-2,1.121203601E-1,2.264360574E-1,-1.548158517E0,1.568642425E0
4.649137502E-2,3.235073655E-1,2.103056359E-1,-7.132813722E-1,8.109597968E-1
5.643337502E-2,5.776891190E-1,2.202201748E-1,-1.996297896E-2,6.185629831E-1
6.637437502E-2,8.917923345E-1,1.758710906E-1,3.562357664E-1,9.762828123E-1
7.631637502E-2,9.234115186E-1,1.384722993E-1,5.963639563E-1,1.107932028E0
8.625837500E-2,9.613033763E-1,1.806675616E-1,9.500199312E-1,1.363555213E0
9.620037500E-2,9.703065535E-1,2.132190111E-1,1.391063713E0,1.709390362E0
1.061413750E-1,8.814220051E-1,8.278751045E-2,1.497186584E0,1.739346484E0
1.160833750E-1,6.918576857E-1,-1.296646383E-1,1.371753868E0,1.541813429E0
1.260253750E-1,2.693963548E-1,-2.640909567E-1,1.000208337E0,1.068987908E0
1.359663750E-1,-1.157121585E-1,-2.476053169E-1,4.753265923E-1,5.483001605E-1
1.459083750E-1,-3.633318011E-1,-5.344442815E-2,8.448115647E-2,3.768333457E-1
1.558503750E-1,-4.889267043E-1,1.434067646E-1,-1.337989122E-1,5.267987957E-1
1.657913750E-1,-4.055503792E-1,1.706474805E-1,-2.845062178E-1,5.239613160E-1
1.757333750E-1,-1.730132639E-1,6.206614763E-2,-3.225581431E-1,3.712540261E-1
1.856753750E-1,2.608731609E-2,-3.174570322E-2,-2.567120630E-1,2.599796550E-1
1.956163750E-1,7.232227352E-2,5.137363672E-3,-9.553180933E-2,1.199301061E-1
2.055583750E-1,2.979280628E-2,1.224386492E-1,5.984040499E-2,1.394980581E-1
2.155003750E-1,-1.794082906E-2,2.563892967E-1,2.120136076E-1,3.331773020E-1
2.254413750E-1,-4.467133887E-2,3.034570438E-1,2.832905817E-1,4.175347406E-1
2.353833750E-1,-1.864315275E-2,3.009652528E-1,2.275291944E-1,3.777528092E-1
2.453253750E-1,-2.139605843E-3,2.030477795E-1,1.647569954E-1,2.614915796E-1
2.552663750E-1,-6.276112575E-2,7.549866378E-2,1.657937068E-1,1.926825377E-1
2.652083750E-1,-1.060930502E-1,2.219456881E-2,2.275677860E-1,2.520623562E-1
2.751503750E-1,-5.485134132E-2,4.685110778E-2,2.177105498E-1,2.293503422E-1
2.850923750E-1,9.841514446E-2,1.372356132E-1,2.568272531E-2,1.708179047E-1
2.950333750E-1,-6.123496592E-3,2.068937856E-1,-1.229991049E-1,2.407723313E-1
3.049753750E-1,-5.307498644E-1,7.057823181E-2,-3.781996626E-1,6.555239814E-1
3.149173750E-1,-2.442518657E-1,1.050276875E-1,-9.454158336E-1,9.820900608E-1
3.248583750E-1,5.490637824E-2,1.647289288E-1,-1.314759888E0,1.326176419E0
3.348003750E-1,2.511981386E-1,2.535533971E-1,-1.459736922E0,1.502738072E0
3.447423750E-1,2.192507064E-1,4.023058324E-1,-1.152410191E0,1.240149227E0
3.546833750E-1,1.111003865E-1,4.093362321E-1,-1.026506190E0,1.110681955E0
3.646253750E-1,2.830197094E-1,3.231123130E-1,-1.039294050E0,1.124559401E0
3.745673750E-1,5.544567425E-1,3.771017016E-1,-7.112436175E-1,9.774944788E-1
3.845083750E-1,6.715163919E-1,4.400000542E-1,1.381814003E-1,8.146339127E-1
3.944503750E-1,8.143975648E-1,8.100849509E-2,4.789840257E-1,9.482781590E-1
4.043923750E-1,6.188665272E-1,-1.976807664E-1,7.187958813E-1,9.688864654E-1
4.143333750E-1,2.139245508E-1,-2.576758303E-1,7.828503746E-1,8.514782768E-1
4.242753750E-1,-5.023416057E-2,-2.966883069E-1,5.482887340E-1,6.254342157E-1
4.342173750E-1,-8.508941308E-2,-4.075867452E-1,4.832413834E-1,6.378788268E-1
4.441583750E-1,-7.551386654E-2,-5.266239229E-1,4.870812500E-1,7.213066229E-1
4.541003750E-1,-1.474587388E-1,-4.500346072E-1,5.736188722E-1,7.438506825E-1
4.640423750E-1,-2.071554485E-1,-3.049512997E-1,5.718688005E-1,6.803988537E-1
4.739843750E-1,-1.373810627E-1,-1.547817917E-1,2.906510568E-1,3.568038624E-1
4.839253750E-1,-8.769215494E-2,-5.931269377E-3,-2.065552318E-1,2.244775218E-1
4.938673750E-1,7.826337352E-2,-1.792873263E-2,-6.720304352E-1,6.768097967E-1
5.038093750E-1,4.128324285E-1,-1.787265784E-1,-6.780238312E-1,8.136892033E-1
5.137503750E-1,6.760705689E-1,-1.910564558E-1,-2.875789297E-1,7.591282001E-1
5.236919167E-1,6.211533733E-1,-1.130439278E-1,8.454898417E-2,6.369921298E-1
5.336339167E-1,4.495698997E-1,1.135564363E-1,3.769793487E-1,5.975965096E-1
5.435749167E-1,3.737461308E-1,3.357161325E-1,2.421501571E-1,5.576990142E-1
5.535169167E-1,2.217691022E-1,3.524985185E-1,-8.275973618E-2,4.246008881E-1
5.634589167E-1,1.376186058E-1,3.057957838E-1,9.176503301E-2,3.476647284E-1
5.733999167E-1,5.949077073E-1,7.761155516E-3,-8.966178954E-2,6.016765345E-1
5.833419167E-1,7.580368379E-1,-7.617723316E-2,-3.610234666E-1,8.430662856E-1
5.932839167E-1,5.421111506E-1,1.765844509E-1,-3.390192246E-1,6.633254123E-1
6.032249167E-1,3.975355276E-1,3.527191047E-1,-4.394819909E-1,6.896301059E-1
6.131669167E-1,5.376146418E-1,3.243893449E-1,-4.769743377E-1,7.885191621E-1
6.231089167E-1,7.933089969E-1,1.720853108E-1,-4.735496235E-1,9.397881488E-1
6.330499167E-1,7.114687353E-1,1.213244623E-1,-3.915979725E-1,8.211311458E-1
6.429919167E-1,5.458036673E-1,1.785374209E-1,-1.855274749E-1,6.034879434E-1
6.529339167E-1,4.726181620E-1,2.624815106E-2,6.157878220E-2,4.773351432E-1
6.628759167E-1,2.730518147E-1,-2.222278163E-1,-4.091466361E-1,5.397624160E-1
6.728169167E-1,-1.404708776E-1,-2.905582322E-1,-1.630886679E0,1.662512410E0
6.827589167E-1,-3.531420046E-1,-3.195034115E-1,-2.862835960E0,2.902175294E0
6.927009167E-1,-1.461882851E-1,-5.103002509E-1,-2.491498590E0,2.547418808E0
7.026419167E-1,-8.022584528E-2,-4.011634326E-1,-1.635719402E0,1.686103867E0
7.125839167E-1,2.823211133E-2,2.809338614E-2,-1.121408839E0,1.122115891E0
7.225259167E-1,6.605552745E-1,3.625536829E-1,-8.373978800E-1,1.126505061E0
7.324669167E-1,1.681604550E0,4.486246973E-1,-9.739017141E-1,1.994377730E0
7.424089167E-1,2.447559687E0,6.632328607E-2,-1.168432732E0,2.712965582E0
7.523509167E-1,2.732537191E0,-6.726863466E-1,-5.976468354E-1,2.876881673E0
7.622919167E-1,2.261204539E0,-1.084699361E0,-5.011186606E-1,2.557486771E0
7.722339167E-1,1.771053209E0,-1.218972117E0,-1.058882223E0,2.396613037E0
7.821759167E-1,1.595406066E0,-9.607356117E-1,-1.686335240E0,2.512381335E0
7.921169167E-1,1.663585770E0,-1.089595088E0,-3.222733253E0,3.786917571E0
8.020589167E-1,2.148200957E0,-1.942477053E0,-4.643834698E0,5.472950315E0
8.120009167E-1,2.150962889E0,-2.565932475E0,-4.761443254E0,5.820824055E0
8.219419167E-1,1.091745914E0,-2.372263045E0,-3.401746345E0,4.288521807E0
8.318839167E-1,3.247549421E-1,-1.514019257E0,-2.310185788E0,2.781128989E0
8.418259167E-1,1.310299340E0,-4.224449221E-1,-2.362303775E0,2.734195164E0
8.517669167E-1,2.262739726E0,2.411048211E-2,-2.550982899E0,3.409997967E0
8.617089167E-1,2.655802133E0,2.615432883E-1,-2.906296560E0,3.945662119E0
8.716509167E-1,3.248296402E0,-5.269689817E-2,-1.764512513E0,3.696986731E0
8.815929167E-1,3.413393998E0,-1.236211024E-1,-4.108914453E-1,3.440257627E0
8.915339167E-1,3.055429210E0,-2.629302844E-1,6.662124556E-1,3.138250950E0
9.014759167E-1,2.957948524E0,-1.117547630E0,6.249188340E-1,3.223180994E0
9.114179167E-1,1.196732671E0,-1.837438110E0,5.659321225E-1,2.264647226E0
9.213589167E-1,-2.645520097E-1,-1.978391090E0,2.032135481E-1,2.006318723E0
9.313009167E-1,4.863743216E-1,-2.067551627E0,-4.628100425E-1,2.173826775E0
9.412429167E-1,2.495033231E0,-1.706656507E0,-1.028324674E0,3.193010945E0
9.511839167E-1,4.502227998E0,-1.135117782E0,-1.571559659E0,4.901871999E0
9.611259167E-1,4.651205113E0,-1.682526802E0,-1.253245425E0,5.102472885E0
9.710679167E-1,2.486336668E0,-3.012931062E0,1.915987558E0,4.350934604E0
9.810089167E-1,-2.460325329E0,-2.893768315E0,2.341359633E0,4.461957050E0
9.909509167E-1,-1.263837072E0,-2.648172394E0,2.884314537E-1,2.948439227E0
1.000892917E0,7.716950566E-1,-2.778688095E0,-5.747789598E-1,2.940576753E0
1.010833917E0,1.295596808E-1,-2.721729198E0,-3.151298404E-2,2.724993322E0
1.020775917E0,-1.471620803E0,-1.838213451E0,1.987784350E-1,2.363093173E0
1.030717917E0,-2.650530576E0,-1.230190146E0,1.441332811E-1,2.925654548E0
1.040658917E0,-1.564260580E0,-1.066323243E0,-5.341326249E-1,1.967041962E0
1.050600917E0,7.372192883E-1,-6.077666116E-1,-9.370221555E-1,1.338238788E0
1.060542917E0,1.848859184E0,4.772003326E-1,-1.201492304E0,2.256010682E0
1.070484917E0,2.551723741E0,1.178941786E0,-1.678169603E0,3.273751824E0
1.080425917E0,2.793392673E0,6.707108648E-1,-6.051054268E0,6.698369461E0
1.090367917E0,1.460039808E0,-1.082597068E0,-5.239371858E0,5.545696540E0
1.100309917E0,4.827174729E-1,-2.249023327E0,-2.129462385E0,3.134602389E0
1.110250917E0,1.032962685E0,-2.520214558E0,-2.393026800E0,3.625613133E0
1.120192917E0,2.308153880E0,-2.217929296E0,-1.804226802E0,3.674509362E0
1.130134917E0,2.037159408E0,-2.192495662E0,-1.554211555E0,3.372332908E0
1.140075917E0,9.015073371E-1,-2.348705198E0,-1.049398331E0,2.725870218E0
1.150017917E0,-1.351834159E0,-2.746395969E0,-3.241287053E-1,3.078182228E0
1.159959917E0,-2.247705950E0,-3.152542691E0,-4.745462814E-1,3.900756546E0
1.169900917E0,-3.194180129E0,-2.957933321E0,-7.242530876E-1,4.413241299E0
1.179842917E0,-3.691232636E0,-2.960353484E0,-8.478372064E-1,4.807048892E0
1.189784917E0,-4.123206217E0,-3.104107865E0,-7.958013725E-1,5.222031690E0
1.199725917E0,-4.856905482E0,-3.547930829E0,-1.937650323E-1,6.017880766E0
1.209667917E0,-5.145270277E0,-3.842390762E0,7.566998720E-2,6.422110163E0
1.219609917E0,-5.455918812E0,-3.529929591E0,-9.348659948E-2,6.498937816E0
1.229550917E0,-6.521174499E0,-3.448296613E0,-6.670120624E-1,7.406846257E0
1.239492917E0,-1.439897904E0,-2.770068129E0,1.377821670E0,3.412473585E0
1.249434917E0,-5.244071850E0,-2.028444133E0,-2.266450953E-1,5.627276709E0
1.259375917E0,-6.659474013E0,-3.386955228E0,1.687259246E0,7.659432330E0
1.269317917E0,-7.034707968E0,-4.287220032E0,2.919736385E0,8.740265005E0
1.279259917E0,-7.904467848E0,-3.582795437E0,2.654272209E0,9.075362035E0
1.289201917E0,-8.981760029E0,-2.521474925E0,3.816985195E0,1.007964409E1
1.299142917E0,-8.953802152E0,-1.386447337E0,3.428931220E0,9.687640503E0
1.309084917E0,-9.359829884E0,-8.602037752E-1,3.510208687E0,1.003334097E1
1.319026917E0,-9.535482581E0,-1.714956191E0,3.504769607E0,1.030290798E1
1.328967917E0,-8.488959618E0,-1.767636681E0,1.736441785E0,8.843201055E0
1.338909917E0,-8.708469356E0,-1.757419256E0,1.050525967E0,8.945924534E0
1.348851917E0,-8.456481258E0,-2.371506708E0,3.197479713E-1,8.788535606E0
1.358792917E0,-7.098613942E0,-2.232611947E0,-3.562614942E-1,7.449952903E0
1.368734917E0,-5.698842555E0,-2.228706007E0,-9.779360005E-1,6.196797218E0
1.378676917E0,-4.312450182E0,-2.496500298E0,-7.114681506E-1,5.033480629E0
1.388617917E0,-2.876863430E0,-2.370115070E0,2.877194090E-1,3.738525257E0
1.398559917E0,-2.196111873E0,-2.353468047E0,6.379440916E-1,3.281568508E0
1.408501917E0,-2.077661902E0,-2.927080488E0,9.736783504E-3,3.589508875E0
1.418442917E0,-1.432695304E0,-2.434531506E0,-9.292017969E-1,2.973714087E0
1.428384917E0,-1.115332412E0,-1.258206203E0,-1.079153935E0,1.997904516E0
1.438326917E0,-6.166479474E-1,-4.241488373E-1,1.552576089E-1,7.643702325E-1
1.448267917E0,-5.340601194E-1,-1.684910274E-1,7.642123747E-1,9.474333702E-1
1.458209917E0,-1.382876442E0,-2.313930345E-1,1.283694801E-1,1.407966162E0
1.468151917E0,-1.141850120E0,3.395583379E-1,8.057930946E-1,1.438201680E0
1.478092917E0,-1.257526757E0,1.210266051E0,1.257492843E0,2.151140560E0
1.488034917E0,-1.491390824E0,1.172716987E0,2.112675029E-1,1.908964557E0
1.497976917E0,-1.985559484E0,1.280953041E0,-2.974292369E0,3.798644792E0
1.507918917E0,-1.675948246E0,1.768334253E0,-3.523550571E0,4.283832067E0
1.517859917E0,-1.190371485E0,1.588271586E0,4.921858692E-1,2.044954237E0
1.527802417E0,-3.415370357E-1,1.221603802E0,2.134429303E0,2.482891831E0
1.537744417E0,1.471188110E0,1.589436936E0,2.604999770E0,3.387731989E0
1.547685417E0,1.511853155E0,2.947990716E0,6.790678516E-1,3.381934708E0
1.557627417E0,4.777432466E-1,4.244171661E0,1.188212693E0,4.433179570E0
1.567569417E0,7.250956714E-2,5.046850528E0,2.457921831E0,5.614030425E0
1.577510417E0,6.053534657E-1,5.477210278E0,2.779390053E0,6.171814507E0
1.587452417E0,1.274269089E0,5.924922810E0,2.252281103E0,6.465388015E0
1.597394417E0,2.130172822E0,6.127663903E0,1.953919323E0,6.775227072E0
1.607335417E0,1.871632919E0,5.460040514E0,2.471571279E0,6.278830845E0
1.617277417E0,-4.680643505E-1,4.744442475E0,3.630975909E0,5.992729319E0
1.627219417E0,2.074241281E-2,4.459978357E0,3.244290183E0,5.515184129E0
1.637160417E0,-3.066595638E-1,3.690880049E0,2.641354541E0,4.548998729E0
1.647102417E0,-3.983685805E0,3.799658433E0,5.122336328E-1,5.528972788E0
1.657044417E0,-1.919676567E0,2.921797528E0,-7.147227108E-1,3.568317176E0
1.666985417E0,1.617984797E0,6.928158250E-1,4.443677782E-1,1.815304739E0
1.676927417E0,4.045943449E0,-1.286807274E0,-6.821034336E-1,4.300092609E0
1.686869417E0,6.795670284E0,-2.974207292E0,2.255478653E-1,7.421449687E0
1.696810417E0,8.719760329E0,-2.303103932E0,3.445623851E-1,9.025365985E0
1.706752417E0,7.378112605E0,-8.343567431E-2,5.587891638E-3,7.378586473E0
1.716694417E0,5.842053146E0,1.189896106E0,1.245823408E0,6.090772830E0
1.726635417E0,4.297340977E0,1.476699110E0,3.437329575E-1,4.556965227E0
1.736577417E0,3.956267626E0,3.354954001E-1,1.225906768E-1,3.972359395E0
1.746519417E0,3.212056822E0,-9.243828142E-1,9.952250478E-1,3.487443979E0
1.756460417E0,3.581961624E0,-1.788607135E0,1.892706577E0,4.428532798E0
1.766402417E0,3.992605147E0,-1.800149831E0,3.787906407E0,5.790481001E0
1.776344417E0,4.017505515E0,-9.893942043E-1,4.408088411E0,6.045700530E0
1.786286417E0,2.868630551E0,-4.542093730E-1,3.437912250E0,4.500509752E0
1.796227417E0,3.359660425E0,-2.045567412E0,2.719394989E0,4.781921509E0
1.806169417E0,4.945867360E0,-1.421973557E0,2.266368069E0,5.623169654E0
1.816111417E0,1.596343083E0,-3.334327948E0,2.242962542E0,4.323995267E0
1.826052417E0,1.872014742E0,-5.927391504E0,3.974095201E-1,6.228671091E0
1.835994417E0,3.778315219E0,-4.926800759E0,-8.606902635E-1,6.268159167E0
1.845936417E0,1.999683434E0,-6.176048443E0,-1.785121025E0,6.732678908E0
1.855877417E0,1.519025350E0,-7.597842783E0,-1.634045345E0,7.918633541E0
1.865819417E0,-2.821070468E0,-8.971684107E0,-3.178824171E0,9.927460774E0
1.875761417E0,-6.355593047E0,-9.514500432E0,-5.183483001E0,1.256136049E1
1.885702417E0,-7.644378433E0,-8.230823758E0,-6.723202232E0,1.309138761E1
1.895644417E0,-8.537651721E0,-6.402013507E0,-7.662736351E0,1.313753410E1
1.905586417E0,-8.223396624E0,-6.776277409E0,-7.714148580E0,1.315485750E1
1.915527417E0,-8.866127831E0,-6.329392258E0,-4.679633106E0,1.185615431E1
1.925469417E0,-8.812424664E0,-5.146795816E0,-1.257881098E0,1.028253862E1
1.935411417E0,-8.071997593E0,-4.487447407E0,-1.637979790E-1,9.236945336E0
1.945352417E0,-8.557897705E0,-3.500581831E0,1.947747149E0,9.449095472E0
1.955294417E0,-8.453057129E0,-1.844228774E0,1.712854410E0,8.819819999E0
1.965236417E0,-8.172555084E0,-5.117448056E-1,9.510706758E-1,8.243608117E0
1.975177417E0,-6.622928916E0,1.285919082E0,5.234016978E0,8.538835344E0
1.985119417E0,-5.276659552E0,2.144179827E0,7.532369170E0,9.443369551E0
1.995061417E0,-3.304396051E0,3.114921706E0,8.733455093E0,9.843526216E0
2.005002417E0,-2.113619354E0,2.472510926E0,7.444155736E0,8.123801553E0
2.014944417E0,-1.012303888E0,2.315119668E0,5.302768539E0,5.874001398E0
2.024886417E0,6.298831201E-1,3.305170223E0,4.154914206E0,5.346420766E0
2.034827417E0,2.058167285E-1,3.779002267E0,4.842026949E0,6.145603602E0
2.044769417E0,-6.356455511E-1,4.596266429E0,4.767291347E0,6.652576729E0
2.054711417E0,1.031395631E0,4.811869057E0,3.883421844E0,6.268877570E0
2.064653417E0,3.635909205E0,5.565362316E0,4.487974826E0,8.020910889E0
2.074594417E0,2.904510820E0,4.808149644E0,2.027251009E0,5.971953847E0
2.084536417E0,9.528125614E-1,3.364285573E0,5.343331844E-2,3.497016487E0
2.094478417E0,1.836208733E0,3.951898586E0,1.528854520E0,4.618068978E0
2.104419417E0,6.092670071E-1,6.140696177E0,-1.420604724E0,6.332256597E0
2.114361417E0,-2.237384444E-1,8.450596036E0,-2.920508802E0,8.943824904E0
2.124303417E0,7.132361147E0,5.162804323E0,-2.242650301E0,9.085956438E0
2.134244417E0,6.991718069E0,2.243237507E-1,-2.131481136E0,7.312841755E0
2.144186417E0,6.542075956E0,-1.193490974E0,-2.012723894E0,6.947966321E0
2.154128417E0,6.685887641E0,-2.030720454E-1,-1.553923580E0,6.867096205E0
2.164069417E0,5.652508634E0,1.595046170E0,5.735687323E-1,5.901186934E0
2.174011417E0,5.298584272E0,1.007551271E0,1.216354172E0,5.528984746E0
2.183953417E0,3.868914902E0,-2.046221423E-1,1.528945298E0,4.165098614E0
2.193894417E0,2.044602329E0,-8.828319150E-1,2.348068582E0,3.236234995E0
2.203836417E0,3.877639532E-1,-1.294308082E0,1.696148476E0,2.168528060E0
2.213778417E0,-1.559569359E0,-2.132705251E0,-8.465341544E-1,2.774402341E0
2.223719417E0,-3.455167091E0,-2.984354550E0,-2.154489638E0,5.048403441E0
2.233661417E0,-3.914349521E0,-1.560713659E0,-1.493343794E-1,4.216664565E0
2.243603417E0,-4.463500135E0,-1.898433048E-1,1.985095800E0,4.888709367E0
2.253544417E0,-4.482368515E0,-9.176550078E-1,2.680606899E0,5.302770179E0
2.263486417E0,-2.453475900E0,-6.320401579E-1,1.927090251E0,3.183189531E0
2.273428417E0,-1.219330990E0,2.298780794E0,1.375558652E0,2.943352307E0
2.283369417E0,-1.218466771E0,3.554339962E0,3.664292175E-1,3.775217108E0
2.293311417E0,-9.238331759E-1,3.293971635E0,7.116887368E-2,3.421809737E0
2.303253417E0,-7.395458955E-1,3.200554764E0,3.209969366E-1,3.300532981E0
2.313194417E0,-6.287686408E-2,2.788824828E0,1.401951814E-1,2.793054262E0
2.323136417E0,8.268781543E-1,2.500944182E0,1.199717090E-2,2.634120957E0
2.333078417E0,1.645584825E0,2.229557946E0,6.186880410E-2,2.771769435E0
2.343019417E0,2.210518827E0,1.636480125E0,2.283454657E-2,2.750451254E0
2.352961417E0,2.089870888E0,1.361481480E0,1.655171335E-1,2.499717598E0
2.362903417E0,1.421631203E0,1.816312997E0,4.806849808E-3,2.306523636E0
2.372844417E0,8.539519322E-1,2.070629455E0,-2.545912778E-1,2.254230903E0
2.382786417E0,8.009673876E-1,2.073909743E0,-2.316177137E-1,2.235239841E0
2.392728417E0,5.584482712E-1,7.677803457E-1,-1.947429791E-1,9.691625038E-1
2.402670417E0,-5.060507870E-1,-4.927688366E-1,-5.717044938E-1,9.087103793E-1
2.412611417E0,2.836957937E-1,1.165122038E-1,-1.610186512E0,1.639133613E0
2.422553417E0,1.160493090E0,1.770212379E0,-2.534326813E0,3.302000677E0
2.432495417E0,1.320575236E0,2.590046393E0,-3.290344607E0,4.390743320E0
2.442436417E0,4.900247383E-1,2.906846198E0,-3.255834633E0,4.392076755E0
2.452378417E0,-5.691893139E-1,2.888882967E0,-2.439748538E0,3.823871624E0
2.462320417E0,-3.847874281E-1,3.328250937E0,-2.314631133E0,4.072202469E0
2.472261417E0,3.896230754E-1,4.655902181E0,-2.753981270E0,5.423434714E0
2.482203417E0,1.221235282E0,5.698439097E0,-3.004490021E0,6.556720525E0
2.492145417E0,1.527881835E0,6.084795041E0,-2.653549494E0,6.811789670E0
2.502086417E0,1.210944182E0,5.842167166E0,-2.805916239E0,6.593213856E0
2.512028417E0,1.008347077E0,6.149267026E0,-2.913734803E0,6.878960625E0
2.521970125E0,1.032366635E0,5.622246369E0,-2.650040579E0,6.300646806E0
2.531911125E0,1.104304856E0,6.598548365E0,-1.246871375E0,6.805513792E0
2.541853125E0,1.004604566E0,7.180822871E0,-2.721562406E-1,7.255860835E0
2.551795125E0,9.402734998E-1,7.212108398E0,-1.521433087E-1,7.274735005E0
2.561736125E0,4.749453539E-1,7.080099319E0,-2.691520143E-1,7.101114156E0
2.571678125E0,6.845934704E-2,6.755270117E0,4.465730555E-1,6.770361034E0
2.581620125E0,6.818764155E-1,5.125728298E0,6.253329630E-1,5.208559047E0
2.591561125E0,1.973204025E0,-5.680417979E-1,1.418977152E0,2.495937052E0
2.601503125E0,4.191322187E-1,-1.917025439E1,5.031833124E0,1.982406794E1
2.611445125E0,-1.603153335E0,-5.308973371E1,4.066114004E0,5.326934586E1
2.621386125E0,1.299863755E1,-5.096217050E1,-1.273333535E1,5.411326297E1
2.631328125E0,1.233175091E1,-2.895321570E1,-1.345419997E1,3.422537475E1
2.641270125E0,3.140072334E0,-9.195889159E0,-4.381155551E0,1.065921928E1
2.651211125E0,4.793298885E-2,3.351943270E0,-1.607094358E0,3.717603197E0
2.661153125E0,-4.133937612E-1,7.029561249E0,3.378299010E-1,7.049805302E0
2.671095125E0,1.029066101E-2,7.181911622E0,1.339370234E0,7.305742472E0
2.681036125E0,9.155067408E-1,5.900647509E0,2.159656237E0,6.349795956E0
2.690978125E0,1.721550681E0,3.396975601E0,3.074579426E0,4.894509029E0
2.700920125E0,1.574223943E0,9.372010803E-1,3.926022903E0,4.332456892E0
2.710861125E0,1.125055820E0,-5.865172452E-1,4.097881926E0,4.289800620E0
2.720803125E0,5.163107501E-1,-1.211243121E0,3.486789418E0,3.727115123E0
2.730745125E0,-1.004941951E-1,-1.150054933E0,2.227457188E0,2.508842553E0
2.740686125E0,-3.171252027E-1,-7.439786696E-1,7.803401649E-1,1.123834253E0
2.750628125E0,2.787678335E-1,-7.212306619E-2,-5.791876873E-1,6.468165263E-1
2.760570125E0,7.123993197E-1,4.645835030E-1,-1.082368734E0,1.376543751E0
2.770511125E0,4.789334473E-1,1.070079056E0,-1.091903204E0,1.602092082E0
2.780453125E0,1.687665043E-1,1.266944867E0,-1.097657960E0,1.684780231E0
2.790395125E0,-3.454220720E-2,9.872205019E-1,-1.077388002E0,1.461698461E0
2.800336125E0,-2.056257438E-1,5.908383375E-1,-1.029818564E0,1.204947369E0
2.810278125E0,-3.079340375E-1,2.412052470E-1,-8.940321835E-1,9.758570017E-1
2.820220125E0,-3.079608616E-1,9.349522412E-2,-7.131217432E-1,7.823834545E-1
2.830162125E0,-2.176096123E-1,-7.968643963E-2,-5.594640787E-1,6.055608370E-1
2.840103125E0,-1.013386792E-1,-3.253788400E-1,-2.957229316E-1,4.512127765E-1
2.850045125E0,-9.967134565E-2,-4.697770000E-1,8.223009539E-1,9.522623932E-1
2.859987125E0,-1.294862983E-1,-6.682601506E-1,2.193330352E0,2.296527022E0
2.869928125E0,-1.044409195E-1,-7.057875806E-1,2.389710259E0,2.493944494E0
2.879870125E0,-9.230524264E-2,-5.811436540E-1,1.782397392E0,1.877015894E0
2.889812125E0,-9.069301911E-2,-3.600072205E-1,9.600345305E-1,1.029318572E0
2.899753125E0,-1.670686921E-1,7.216867447E-2,2.169878340E-1,2.832030818E-1
2.909695125E0,-1.086313266E-1,2.636948079E-1,-3.815366685E-1,4.763464561E-1
2.919637125E0,-1.525363147E-2,2.031065440E-1,-6.788418567E-1,7.087391678E-1
2.929578125E0,3.393924963E-2,1.077425498E-1,-6.745089968E-1,6.839025636E-1
2.939520125E0,9.801278293E-2,1.209479016E-1,-5.232439399E-1,5.459112759E-1
2.949462125E0,2.692508322E-1,7.158044457E-2,-2.228654552E-1,3.567755342E-1
2.959403125E0,3.625472144E-1,1.761175507E-1,1.069398002E-1,4.170059894E-1
2.969345125E0,4.172564319E-1,3.234130061E-1,4.036134160E-1,6.645319345E-1
2.979287125E0,5.513208076E-1,4.586029708E-1,4.982318902E-1,8.732160868E-1
2.989228125E0,4.747594855E-1,2.921304023E-1,5.111319443E-1,7.563019275E-1
2.999170125E0,2.535156825E-1,2.285255599E-1,4.400088251E-1,5.568679367E-1
3.009112125E0,2.428971023E-1,4.225607336E-1,3.239252952E-1,5.852214733E-1
3.019053125E0,-5.787223220E-2,3.399278820E-1,1.435526526E-1,3.735070605E-1
3.028995125E0,-1.876207781E-1,1.352104300E-1,-9.782274842E-2,2.511029806E-1
3.038937125E0,-2.378801548E-1,-2.837677145E-1,-1.918928269E-1,4.170538824E-1
3.048878125E0,-5.832085982E-1,-4.673878276E-1,4.671340585E-2,7.488429693E-1
3.058820125E0,-7.216852098E-1,-4.950398952E-1,3.348676284E-1,9.370327467E-1
3.068762125E0,-5.677640917E-1,-3.399074167E-1,5.154566912E-1,8.388019529E-1
3.078703125E0,-3.151688340E-1,-2.755120307E-1,5.756305336E-1,7.117505070E-1
3.088645125E0,-1.002599045E-1,-1.262869942E-1,5.836457507E-1,6.055103761E-1
3.098587125E0,-8.924517542E-2,9.513946116E-2,6.517201316E-1,6.646467847E-1
3.108528125E0,-1.291966053E-1,1.930990344E-1,4.937798933E-1,5.457083314E-1
3.118470125E0,-1.699147878E-1,1.952116334E-1,1.922739192E-1,3.224094865E-1
3.128412125E0,-1.520580490E-1,1.252608079E-1,-1.117261847E-1,2.264832458E-1
3.138353125E0,-1.237037309E-1,1.975452572E-1,-2.377664264E-1,3.329558758E-1
3.148295125E0,-1.171878130E-1,3.528309327E-1,-1.361010341E-1,3.959117857E-1
3.158237125E0,-1.261405580E-1,3.491957188E-1,7.165536202E-2,3.781316983E-1
3.168178125E0,-1.453199735E-1,1.791160029E-1,3.180885315E-1,3.929131597E-1
3.178120125E0,-1.355682796E-1,4.421079755E-2,5.432273841E-1,5.616309677E-1
3.188062125E0,-1.195357990E-1,-7.042386532E-3,6.532684743E-1,6.641521678E-1
3.198003125E0,-1.083383445E-1,-5.003988683E-2,6.226640745E-1,6.339966379E-1
3.207945125E0,-8.170489848E-2,-6.499998808E-2,4.884284484E-1,4.994627495E-1
3.217887125E0,-6.922555156E-2,-3.853841364E-2,3.318799205E-1,3.412061957E-1
3.227828125E0,-7.640198551E-2,-2.345902920E-3,2.256134272E-1,2.382103801E-1
3.237770125E0,-6.578965455E-2,1.804041445E-2,1.629923058E-1,1.766924643E-1
3.247712125E0,-4.985072941E-2,2.671826720E-2,1.495343542E-1,1.598733377E-1
3.257653125E0,-4.947855413E-2,1.907420218E-2,1.470925570E-1,1.563591149E-1
3.267595125E0,-3.720407903E-2,2.859346926E-2,1.772910869E-1,1.833953638E-1
3.277537125E0,-4.592344701E-2,3.402904093E-2,1.928867805E-1,2.011771575E-1
3.287478125E0,-5.423964947E-2,4.885231733E-2,2.330548131E-1,2.442192343E-1
3.297420125E0,-8.272849012E-2,4.372313976E-2,2.739421264E-1,2.894823046E-1
3.307362125E0,-1.236107967E-1,2.814381838E-2,2.939431854E-1,3.201160724E-1
3.317303125E0,-1.679060500E-1,3.043358803E-2,3.175038830E-1,3.604543808E-1
3.327245125E0,-2.135008104E-1,5.634669363E-2,3.060934802E-1,3.774265022E-1
3.337187125E0,-2.576917274E-1,7.539984584E-2,2.714650997E-1,3.818160073E-1
3.347128125E0,-2.836487237E-1,8.252760172E-2,2.347201002E-1,3.773074726E-1
3.357070125E0,-2.751009349E-1,6.543034315E-2,1.873599192E-1,3.392129029E-1
3.367012125E0,-2.367554794E-1,3.613053024E-2,1.457990798E-1,2.803853489E-1
3.376953125E0,-1.892521695E-1,4.591526091E-2,1.164157978E-1,2.268859468E-1
3.386895125E0,-1.722309065E-1,5.789328218E-2,7.399417520E-2,1.961893352E-1
3.396837125E0,-1.549269671E-1,8.760590851E-2,6.999124445E-2,1.912483585E-1
3.406779125E0,-1.065690501E-1,1.324675012E-1,1.262461368E-1,2.117609227E-1
3.416720125E0,-6.252281517E-2,1.593986070E-1,1.801094449E-1,2.485084112E-1
3.426662125E0,-9.289093265E-2,1.551073354E-1,2.163973383E-1,2.819837210E-1
3.436604125E0,-1.006464054E-1,1.284317529E-1,2.303289874E-1,2.822691207E-1
3.446545125E0,-1.077130396E-1,6.996544361E-2,2.212259690E-1,2.558088965E-1
3.456487125E0,-1.473203060E-1,3.838346243E-2,1.792627680E-1,2.351844016E-1
3.466429125E0,-1.622921382E-1,5.195718884E-2,1.468740173E-1,2.249672522E-1
3.476370125E0,-1.852325011E-1,6.040583074E-2,1.369769470E-1,2.381651273E-1
3.486312125E0,-1.784535134E-1,8.653002083E-2,1.320698905E-1,2.382762198E-1
3.496254125E0,-1.554131631E-1,9.097858250E-2,1.635841171E-1,2.432901911E-1
3.506195125E0,-1.564431319E-1,7.867954910E-2,1.823770682E-1,2.528365479E-1
3.516137125E0,-1.419458469E-1,3.715028465E-2,1.593495635E-1,2.166126739E-1
3.526078917E0,-1.028788449E-1,1.819068789E-3,1.196399526E-1,1.578007731E-1
3.536019917E0,-8.203205019E-2,-2.908638954E-2,8.048458457E-2,1.185455342E-1
3.545961917E0,-4.796968927E-2,-1.450167954E-2,6.042636909E-2,7.850309471E-2
3.555903917E0,-8.249836564E-3,2.512899399E-2,5.139000893E-2,5.779670544E-2
3.565844917E0,1.200216844E-1,3.136914253E-2,5.771216467E-2,1.368207651E-1
3.575786917E0,2.826962122E-1,6.348906755E-3,1.116280246E-1,3.040037383E-1
3.585728917E0,4.052918592E-1,-2.747021914E-3,2.134409130E-1,4.580677467E-1
3.595669917E0,4.758124959E-1,1.784687161E-2,3.054328179E-1,5.656900639E-1
3.605611917E0,4.307199383E-1,3.659947693E-2,3.399103403E-1,5.499074708E-1
3.615553917E0,2.872994145E-1,4.876051605E-2,3.233640356E-1,4.352962681E-1
3.625494917E0,1.426638758E-1,6.346626341E-2,2.553105585E-1,2.992731684E-1
3.635436917E0,4.501391262E-2,7.210435510E-2,1.571392429E-1,1.786561838E-1
3.645378917E0,9.191685962E-4,8.900807083E-2,6.585499719E-2,1.107256167E-1
3.655319917E0,-1.480690876E-2,7.850822568E-2,-1.573010646E-2,8.142617697E-2
3.665261917E0,-5.742814531E-2,6.197814703E-2,-1.018946763E-1,1.323699650E-1
3.675203917E0,-7.274111688E-2,7.828135371E-2,-1.460295331E-1,1.809526595E-1
3.685144917E0,-1.051107271E-1,1.029981190E-1,-1.579729827E-1,2.158989133E-1
3.695086917E0,-1.485452977E-1,1.286247110E-1,-1.296093822E-1,2.353903432E-1
3.705028917E0,-1.438789455E-1,1.345175350E-1,-6.610730454E-2,2.077649968E-1
3.714969917E0,-1.221585767E-1,1.067526162E-1,7.523173839E-3,1.624051633E-1
3.724911917E0,-6.960790465E-2,7.895612240E-2,8.448773459E-2,1.349722451E-1
3.734853917E0,-2.181714018E-2,7.110214233E-2,1.426300351E-1,1.608565484E-1
3.744794917E0,-1.526387324E-2,5.623676598E-2,1.471991225E-1,1.583134275E-1
3.754736917E0,-1.381522556E-2,5.648644209E-2,1.133145078E-1,1.273646586E-1
3.764678917E0,-3.447109957E-2,4.848511219E-2,6.942172565E-2,9.142449782E-2
3.774619917E0,-6.199042618E-2,5.963282883E-2,1.529163837E-2,8.736544750E-2
3.784561917E0,-9.418285668E-2,8.847129643E-2,2.897880077E-3,1.292516092E-1
3.794503917E0,-1.495536500E-1,1.076010472E-1,2.968982220E-2,1.866166261E-1
3.804444917E0,-1.464867763E-1,1.010048032E-1,6.157922074E-2,1.882879346E-1
3.814386917E0,-1.036752266E-1,9.305025101E-2,9.924603380E-2,1.710458332E-1
3.824328917E0,-1.539405236E-1,9.992248356E-2,1.340955122E-1,2.272967090E-1
3.834269917E0,-1.904224715E-1,8.000745177E-2,1.290282420E-1,2.435368498E-1
3.844211917E0,-1.879774582E-1,6.262894213E-2,9.603357352E-2,2.201825525E-1
3.854153917E0,-1.828661147E-1,5.944981098E-2,5.198978707E-2,1.991914503E-1
3.864094917E0,-1.719923401E-1,4.353661358E-2,-1.470216595E-2,1.780251540E-1
3.874036917E0,-1.301408941E-1,1.383451223E-2,-7.476717710E-2,1.507255015E-1
3.883978917E0,-6.651003152E-2,-2.930039763E-3,-1.039401054E-1,1.234330383E-1
3.893919917E0,2.674429645E-2,-1.705749750E-2,-8.380594924E-2,8.960832964E-2
3.903861917E0,1.200409985E-1,-1.279019952E-2,-2.669137001E-2,1.236359970E-1
3.913803917E0,1.970535064E-1,1.709199607E-2,5.582921505E-2,2.055215851E-1
3.923744917E0,2.340520558E-1,4.963233590E-2,1.420089877E-1,2.782270407E-1
3.933686917E0,2.475851440E-1,7.718850911E-2,2.007746744E-1,3.279739919E-1
3.943628917E0,2.433535141E-1,7.490049362E-2,2.114493513E-1,3.309710636E-1
3.953569917E0,2.082380605E-1,7.519987106E-2,2.065365207E-1,3.027795317E-1
3.963511917E0,1.833078718E-1,6.173490286E-2,1.715501444E-1,2.585390225E-1
3.973453917E0,1.486411920E-1,5.199110270E-2,1.263407886E-1,2.018892607E-1
3.983394917E0,1.211844306E-1,4.476043582E-2,9.166899249E-2,1.584057039E-1
3.993336917E0,7.931221783E-2,3.109432340E-2,8.370406151E-2,1.194305437E-1
4.003278917E0,3.728887280E-2,2.538568676E-2,8.160008714E-2,9.323876526E-2
4.013219917E0,1.686248372E-2,5.252319932E-2,1.122304340E-1,1.250547885E-1
4.023161917E0,3.465293884E-2,3.973124564E-2,1.710883605E-1,1.790268839E-1
4.033103917E0,7.695198010E-2,-4.268876731E-2,1.980055062E-1,2.166797604E-1
4.043044917E0,1.224631801E-1,-9.379869461E-2,1.893541121E-1,2.442343247E-1
4.052986917E0,1.609028032E-1,-9.396943331E-2,1.936026259E-1,2.687041928E-1
4.062928917E0,1.720452391E-1,-1.035325545E-1,2.249904795E-1,3.015613868E-1
4.072869917E0,1.926809585E-1,-1.041640538E-1,2.317754424E-1,3.188980363E-1
4.082811917E0,1.879236639E-1,-5.382245064E-2,2.452930355E-1,3.136571901E-1
4.092753917E0,1.707881060E-1,1.277265787E-2,2.572272757E-1,3.090268424E-1
4.102694917E0,1.240358071E-1,6.346158564E-2,2.689942125E-1,3.029358689E-1
4.112636917E0,5.786725293E-2,8.594763815E-2,3.006253103E-1,3.179798620E-1
4.122578917E0,-4.499490917E-2,8.434667051E-2,3.067952192E-1,3.213443779E-1
4.132519917E0,-1.861852866E-1,5.858793139E-2,2.947347522E-1,3.535054184E-1
4.142461917E0,-3.408622305E-1,6.772829890E-3,2.369850922E-1,4.152046066E-1
4.152403917E0,-4.476754019E-1,-2.471033335E-2,1.664936185E-1,4.782718798E-1
4.162344917E0,-5.296866944E-1,-1.226161122E-2,8.598798394E-2,5.367609102E-1
4.172286917E0,-6.120023346E-1,1.154240370E-2,2.520851612E-2,6.126300302E-1
4.182228917E0,-6.257643414E-1,2.267959535E-2,-5.362379149E-2,6.284670922E-1
4.192169917E0,-6.289431801E-1,4.845002890E-2,-1.180729719E-1,6.417617594E-1
4.202111917E0,-6.632145882E-1,5.826341093E-2,-1.321796720E-1,6.787633466E-1
4.212053917E0,-6.927719709E-1,4.990598559E-2,-9.372633532E-2,7.008624951E-1
4.221994917E0,-6.679318294E-1,5.497961462E-2,-3.327548102E-2,6.710163518E-1
4.231936917E0,-6.032920298E-1,6.874629915E-2,7.003429458E-2,6.112218331E-1
4.241878917E0,-5.125028971E-1,7.875263929E-2,1.728131430E-1,5.465579385E-1
4.251819917E0,-3.994838199E-1,6.219800234E-2,2.634077827E-1,4.825345312E-1
4.261761917E0,-2.827263254E-1,1.812402964E-2,3.136996114E-1,4.226938629E-1
4.271703917E0,-1.136441445E-1,-1.151381081E-1,3.366768301E-1,3.735278616E-1
4.281644917E0,1.364181724E-1,-3.345583838E-1,3.553727174E-1,5.067829893E-1
4.291586917E0,4.802189577E-1,-5.868978989E-1,4.133371894E-1,8.636590897E-1
4.301528917E0,7.717286780E-1,-7.525050795E-1,5.728119564E-1,1.220632043E0
4.311469917E0,9.601367837E-1,-7.624108475E-1,8.467669467E-1,1.490015841E0
4.321411917E0,1.016258944E0,-6.966454589E-1,1.195970632E0,1.717103052E0
4.331353917E0,9.717823908E-1,-5.878042173E-1,1.535313793E0,1.909728581E0
4.341294917E0,8.372671947E-1,-4.915947157E-1,1.814112689E0,2.057592421E0
4.351236917E0,7.584432194E-1,-3.295783103E-1,1.813008735E0,1.992701346E0
4.361178917E0,5.859810555E-1,-1.943591094E-1,1.666968677E0,1.777620272E0
4.371119917E0,3.517114833E-1,-2.178964913E-2,1.410743687E0,1.454088549E0
4.381061917E0,3.411335413E-1,5.258401036E-2,8.468803096E-1,9.145181408E-1
4.391003917E0,3.712589810E-1,1.174576986E-1,2.414257236E-1,4.581658237E-1
4.400944917E0,1.888504475E-1,3.151561528E-1,9.822269797E-2,3.803098613E-1
4.410886917E0,-4.325796452E-1,2.433751488E-1,3.745258570E-1,6.217927549E-1
4.420828917E0,-8.820698036E-1,1.818133235E-1,8.047978985E-1,1.207809124E0
4.430769917E0,-1.298306993E0,7.361983645E-1,1.353679540E0,2.014953443E0
4.440711917E0,-1.085094706E0,1.495183913E0,6.268946081E-1,1.950897820E0
4.450653917E0,-7.512999684E-1,1.632586464E0,-1.470734950E0,2.322251386E0
4.460594917E0,-7.509272084E-1,1.736302037E0,-3.090773875E0,3.623743862E0
4.470536917E0,-1.642248988E0,2.057934566E0,-2.477115024E0,3.614993120E0
4.480478917E0,-3.209962057E0,2.277946579E0,-6.256111443E-1,3.985509544E0
4.490419917E0,-3.710285788E0,2.362114910E0,-1.174653584E0,4.552539788E0
4.500361917E0,-4.096799607E0,2.225796432E0,-3.258956754E0,5.688473952E0
4.510303917E0,-2.406479782E0,2.155357364E0,-2.869105929E0,4.320703547E0
4.520244917E0,6.219712526E-2,2.957849121E0,-6.318742432E-1,3.025228085E0
4.530187375E0,1.790872639E0,3.882228427E0,1.838680351E-1,4.279337545E0
4.540129375E0,2.443098262E0,4.974770147E0,2.186636460E-1,5.546609858E0
4.550070375E0,1.585104150E0,5.971694688E0,1.337859313E0,6.321673841E0
4.560012375E0,9.759239736E-1,5.810779313E0,3.645597749E0,6.928778159E0
4.569954375E0,1.681683195E0,3.892842878E0,6.415533439E0,7.690341562E0
4.579895375E0,3.278920317E0,3.556241477E-1,6.221500604E0,7.041651564E0
4.589837375E0,2.918066420E0,-2.707614604E0,3.227027155E0,5.124450481E0
4.599779375E0,1.734593480E0,-4.012765177E0,-7.020924327E-1,4.427644147E0
4.609720375E0,1.593465083E0,-3.788835529E0,-1.182260227E0,4.276931714E0
4.619662375E0,2.048713506E0,-3.470322490E0,-1.259151113E-1,4.031900275E0
4.629604375E0,1.710465530E0,-4.316987037E0,-9.925949702E-1,4.748401224E0
4.639545375E0,1.747824267E0,-6.796503512E0,-1.623429725E-1,7.019523125E0
4.649487375E0,1.161868355E0,-9.421156651E0,-6.397628680E-1,9.514064707E0
4.659429375E0,7.082977903E-1,-1.196824823E1,-5.628053239E-1,1.200239148E1
4.669370375E0,6.808252323E-1,-1.396763462E1,-2.816546769E0,1.426503683E1
4.679312375E0,1.024737407E0,-1.437921078E1,-5.311193208E0,1.536296074E1
4.689254375E0,1.706510765E0,-1.438169351E1,-6.008860175E0,1.567965840E1
4.699195375E0,1.384422738E0,-1.702673413E1,-5.947100129E0,1.808851297E1
4.709137375E0,-2.110926419E0,-2.688728682E1,-5.178683606E0,2.746271958E1
4.719079375E0,-5.727028474E0,-3.328037747E1,-1.890259663E0,3.382241064E1
4.729020375E0,-3.223317389E0,-2.094669347E1,1.835072765E0,2.127254650E1
4.738962375E0,-7.619570305E-1,-7.690918761E0,3.649591690E0,8.546948544E0
4.748904375E0,-6.115857205E-1,-3.070460647E0,3.923154843E0,5.019253889E0
4.758845375E0,-1.056603490E0,-9.048800111E-1,3.058736395E0,3.360221288E0
4.768787375E0,-1.809010701E0,1.183379969E0,1.291282732E0,2.517999000E0
4.778729375E0,-1.412741388E0,2.709795030E0,6.869034129E-1,3.132197892E0
4.788670375E0,-1.197661135E0,4.042349750E0,9.556081152E-1,4.322981675E0
4.798612375E0,-9.354555403E-1,5.826308348E0,1.133178114E0,6.008746847E0
4.808554375E0,-2.567971399E-1,7.726216648E0,1.919966004E0,7.965339787E0
4.818495375E0,5.233249238E-1,9.568100688E0,3.312993212E0,1.013895181E1
4.828437375E0,1.241832830E0,1.102338145E1,4.345547177E0,1.191389389E1
4.838379375E0,1.639244250E0,1.174877065E1,4.251498806E0,1.260142752E1
4.848320375E0,1.644499874E0,1.163580829E1,3.123567984E0,1.215948565E1
4.858262375E0,1.527262761E0,1.129258726E1,1.608511723E0,1.150836081E1
4.868204375E0,1.593539781E0,1.119288287E1,2.470390872E-1,1.130844925E1
4.878145375E0,2.176500458E0,1.167055829E1,-3.414181910E-2,1.187182592E1
4.888087375E0,2.620919399E0,1.269688731E1,9.582750303E-1,1.299994065E1
4.898029375E0,2.300295076E0,1.380694378E1,2.194681644E0,1.416826318E1
4.907970375E0,1.322617230E0,1.418310335E1,1.794657834E0,1.435724673E1
4.917912375E0,4.007902341E-1,1.391304034E1,2.647513998E-1,1.392132959E1
4.927854375E0,1.455363205E-1,1.332089047E1,-1.112719291E0,1.336807570E1
4.937795375E0,2.841198631E-1,1.262129685E1,-2.317543339E0,1.283545345E1
4.947737375E0,5.359167200E-1,1.217218391E1,-2.927150654E0,1.253066154E1
4.957679375E0,8.052121738E-1,1.209462176E1,-2.978790339E0,1.248204447E1
4.967620375E0,7.571559548E-1,1.213702343E1,-2.544389579E0,1.242395031E1
4.977562375E0,7.297023272E-1,1.209110174E1,-2.347333880E0,1.233844330E1
4.987504375E0,1.178720688E0,1.198620152E1,-2.630979241E0,1.232803557E1
4.997445375E0,1.570060141E0,1.166792938E1,-2.814164906E0,1.210475894E1
5.007387375E0,1.537839205E0,1.103497765E1,-2.577817526E0,1.143594440E1
5.017329375E0,1.364876081E0,1.034336079E1,-2.609689529E0,1.075446320E1
5.027270375E0,1.158078190E0,9.795799452E0,-2.566439721E0,1.019242095E1
5.037212375E0,1.104953093E0,9.500170661E0,-2.150918743E0,9.803092132E0
5.047154375E0,1.146907230E0,9.374732682E0,-1.776598854E0,9.610271200E0
5.057095375E0,1.342128950E0,9.324221510E0,-1.653915353E0,9.564405516E0
5.067037375E0,1.515286202E0,9.099198432E0,-1.714451723E0,9.382475637E0
5.076979375E0,1.756694494E0,8.671724283E0,-1.876824662E0,9.044735950E0
5.086920375E0,2.438804651E0,7.952530206E0,-2.437733442E0,8.667932230E0
5.096862375E0,4.545001550E0,6.410622947E0,-3.158695716E0,8.469385119E0
5.106804375E0,1.186002562E1,-1.970876541E0,3.163004529E0,1.243178023E1
5.116745375E0,2.815349669E1,-3.698428921E1,2.441898530E1,5.250470329E1
5.126687375E0,1.734684229E1,-6.861510166E1,2.263721239E1,7.430604618E1
5.136629375E0,-1.890421427E1,-6.644340835E1,2.516985667E1,7.352290469E1
5.146570375E0,-2.194482254E1,-3.041171009E1,-4.590099370E0,3.778248746E1
5.156512375E0,-1.072547750E1,-4.621949154E0,-1.307527116E1,1.753171405E1
5.166454375E0,-3.535292949E0,8.510382646E-1,-1.408500461E1,1.454681812E1
5.176395375E0,-2.615532652E-1,5.761595458E0,-9.942941126E0,1.149462790E1
5.186337375E0,1.030120427E0,8.811096177E0,-5.849564479E0,1.062609846E1
5.196279375E0,1.280637876E0,9.778347852E0,-1.988310599E0,1.006029319E1
5.206220375E0,1.693091405E0,1.034411157E1,2.979719462E0,1.089706065E1
5.216162375E0,5.802893758E-1,9.710909575E0,1.497291250E0,9.842783225E0
5.226104375E0,1.512282926E0,7.966282273E0,2.187741584E-1,8.111505103E0
5.236045375E0,2.994032276E0,5.202204031E0,-1.794224116E0,6.264694425E0
5.245987375E0,2.123570000E0,5.596937281E-1,-3.332223535E0,3.990804468E0
5.255929375E0,-3.520849742E-1,-2.214672105E0,-2.187873731E0,3.132974277E0
5.265870375E0,-2.430420037E0,-1.900339825E0,-3.023185909E-1,3.099940247E0
5.275812375E0,-3.663677047E0,9.417712641E-1,1.650070809E0,4.127008153E0
5.285754375E0,-3.930663253E0,3.452683194E0,3.642166311E0,6.374677269E0
5.295695375E0,-3.568937244E0,5.013541864E0,4.269442742E0,7.490063845E0
5.305637375E0,-2.612698214E0,5.653054764E0,3.896554105E0,7.346179552E0
5.315579375E0,-2.028163321E0,5.263376432E0,3.180194759E0,6.475354556E0
5.325520375E0,-1.608157090E0,4.391353095E0,2.401171972E0,5.256974231E0
5.335462375E0,-1.163574865E0,3.044304298E0,1.617813474E0,3.638545803E0
5.345404375E0,-2.008888413E-1,1.871953931E0,6.733980989E-1,1.999508151E0
5.355345375E0,6.273594618E-1,7.922696543E-1,-3.149509156E-1,1.058520278E0
5.365287375E0,7.605765760E-1,-4.256539106E-1,-1.075548542E0,1.384363624E0
5.375229375E0,7.172191796E-1,-1.591465335E0,-1.659964882E0,2.408868754E0
5.385170375E0,8.087602642E-1,-2.117532311E0,-1.686002533E0,2.825002796E0
5.395112375E0,1.104479103E0,-2.284803025E0,-1.235649984E0,2.822592750E0
5.405054375E0,1.677128360E0,-2.535960233E0,-5.965072862E-1,3.098334195E0
5.414995375E0,2.351320365E0,-2.349042875E0,2.709482789E-2,3.323769549E0
5.424937375E0,2.517918064E0,-1.331298738E0,6.876032516E-1,2.930028317E0
5.434879375E0,1.772839387E0,-4.130496526E-1,1.612264466E0,2.431659149E0
5.444820375E0,9.061172819E-1,-4.703851104E-1,2.783312073E0,2.964647833E0
5.454762375E0,6.082919839E-1,-7.042421615E-1,3.001465842E0,3.142415211E0
5.464704375E0,2.361858509E-1,-9.845565104E-1,1.873105248E0,2.129238960E0
5.474645375E0,-5.795467794E-1,-1.547412413E0,6.912227511E-2,1.653825122E0
5.484587375E0,-7.600819016E-1,-1.376902927E0,-1.377222769E0,2.090533119E0
5.494529375E0,-7.959839518E-1,-8.497425216E-1,-1.754393907E0,2.105599863E0
5.504470375E0,-3.238695274E-1,-1.314956939E-1,-1.507993408E0,1.547975035E0
5.514412375E0,1.159986721E-1,4.166556305E-1,-8.630982200E-1,9.653994736E-1
5.524354667E0,7.089107247E-1,4.734782875E-1,1.198397812E-1,8.608703023E-1
5.534295667E0,1.472038002E0,1.352104300E-1,1.638605003E0,2.206853891E0
5.544237667E0,1.899877748E0,-9.524880409E-2,3.297669414E0,3.806997683E0
5.554179667E0,1.628261864E0,1.146826100E-1,4.366374375E0,4.661503403E0
5.564120667E0,9.836785510E-1,5.572747350E-1,4.269372575E0,4.416528140E0
5.574062667E0,3.136480097E-1,7.047251415E-1,2.975524085E0,3.073882915E0
5.584004667E0,-2.364473677E-1,4.715159619E-1,1.091088102E0,1.211902598E0
5.593945667E0,-5.277620834E-1,1.902958792E-1,-6.819186616E-1,8.830392966E-1
5.603887667E0,-5.581873392E-1,1.183897448E-1,-1.990558269E0,2.070727278E0
5.613829667E0,-5.193463321E-1,1.126185429E-1,-2.833115147E0,2.882524065E0
5.623770667E0,-3.905118522E-1,1.562376022E-2,-3.387090883E0,3.409564233E0
5.633712667E0,-1.090689906E-1,-3.024881601E-2,-3.689801238E0,3.691536836E0
5.643654667E0,1.633503015E-1,7.153717518E-2,-3.511783926E0,3.516308751E0
5.653595667E0,2.175186150E-1,2.496117890E-1,-2.871553574E0,2.890577852E0
5.663537667E0,7.272913009E-2,4.516915619E-1,-2.145221801E0,2.193465607E0
5.673479667E0,-7.597945109E-2,5.583740115E-1,-1.409520450E0,1.517992856E0
5.683420667E0,-1.412264840E-1,4.585468376E-1,-6.303650037E-1,7.921932592E-1
5.693362667E0,-9.235238582E-3,2.561828899E-1,3.853758772E-1,4.628493594E-1
5.703304667E0,1.918787205E-1,-3.857408166E-3,1.489149002E0,1.501464976E0
5.713245667E0,5.276313981E-1,-1.145060241E-1,2.513375362E0,2.570712398E0
5.723187667E0,7.288557234E-1,-1.591582865E-1,3.130361863E0,3.218031607E0
5.733128667E0,5.934385943E-1,-2.002396542E-1,3.093160708E0,3.155932263E0
5.743070667E0,3.379534234E-1,-2.492679727E-1,2.380941775E0,2.417691207E0
5.753012667E0,1.976383741E-1,-3.681173086E-1,1.331088238E0,1.395122639E0
5.762953667E0,1.428313985E-1,-5.142690486E-1,4.019376040E-1,6.681521535E-1
5.772895667E0,9.937503800E-2,-6.036156732E-1,-2.424759201E-1,6.580439582E-1
5.782837667E0,1.522715820E-1,-5.922597957E-1,-6.337996582E-1,8.807157924E-1
5.792778667E0,1.985606262E-1,-4.736794317E-1,-8.221196902E-1,9.693705748E-1
5.802720667E0,1.904660332E-1,-2.616710865E-1,-8.836125183E-1,9.410208020E-1
5.812662667E0,1.185544901E-1,-2.027229667E-3,-8.752684685E-1,8.832633632E-1
5.822603667E0,2.853280440E-2,2.674159759E-1,-7.352440258E-1,7.828851784E-1
5.832545667E0,-1.099285313E-1,5.564800984E-1,-5.314955306E-1,7.773299691E-1
5.842487667E0,-2.707554670E-1,7.751022291E-1,-3.401231059E-1,8.886932630E-1
5.852428667E0,-3.706019367E-1,8.367687196E-1,-2.184858175E-1,9.408845508E-1
5.862370667E0,-3.819019733E-1,7.400236130E-1,-2.114469393E-1,8.591820955E-1
5.872312667E0,-2.929096900E-1,5.421479881E-1,-2.183630260E-1,6.537606126E-1
5.882253667E0,-1.503662668E-1,3.458142740E-1,-1.885118207E-1,4.215853802E-1
5.892195667E0,2.218419001E-2,1.279131049E-1,-8.708017074E-2,1.563229248E-1
5.902137667E0,1.694159107E-1,-8.894492090E-2,4.396177925E-2,1.963303028E-1
5.912078667E0,2.650851296E-1,-2.387535095E-1,1.585251061E-1,3.903890028E-1
5.922020667E0,3.126740098E-1,-3.176856583E-1,3.064677751E-1,5.409359584E-1
5.931962667E0,3.028322688E-1,-3.030436456E-1,4.320051563E-1,6.084170356E-1
5.941903667E0,3.022533944E-1,-2.442908227E-1,5.568244994E-1,6.790350828E-1
5.951845667E0,3.216943632E-1,-2.813504755E-1,6.568330101E-1,7.836293490E-1
5.961787667E0,2.850080551E-1,-3.912781298E-1,7.346863476E-1,8.798250938E-1
5.971728667E0,2.152943341E-1,-4.664376551E-1,8.181014105E-1,9.660257006E-1
5.981670667E0,1.453592961E-1,-4.937722188E-1,8.837435690E-1,1.022713560E0
5.991612667E0,1.156510551E-1,-4.874478704E-1,8.951011276E-1,1.025761484E0
6.001553667E0,1.182861029E-1,-4.567774701E-1,8.255964446E-1,9.509188970E-1
6.011495667E0,1.378624347E-1,-3.625414038E-1,6.647488976E-1,7.696320011E-1
6.021437667E0,1.588808361E-1,-2.588860577E-1,5.155150902E-1,5.983484931E-1
6.031378667E0,1.920994529E-1,-8.841750205E-2,3.644826794E-1,4.213875627E-1
6.041320667E0,1.450539252E-1,1.069724715E-1,1.488104689E-1,2.337269914E-1
6.051262667E0,9.815516263E-2,2.753295976E-1,-5.192320190E-2,2.968784973E-1
6.061203667E0,1.283991547E-1,4.163790572E-1,-2.714956148E-1,5.133884797E-1
6.071145667E0,1.180859819E-1,5.229311138E-1,-5.789608884E-1,7.890481349E-1
6.081087667E0,1.402798198E-1,5.636727583E-1,-8.338796103E-1,1.016248302E0
6.091028667E0,1.563609785E-1,5.897460777E-1,-1.024397099E0,1.192324875E0
6.100970667E0,1.314965710E-1,5.937730551E-1,-1.179887427E0,1.327400516E0
6.110912667E0,9.018818513E-2,6.155393153E-1,-1.277047101E0,1.420518165E0
6.120853667E0,4.297908157E-2,5.743275547E-1,-1.338799546E0,1.457423605E0
6.130795667E0,-7.329616383E-2,4.528978425E-1,-1.445484334E0,1.516546651E0
6.140737667E0,-1.109909704E-1,3.266096789E-1,-1.464594204E0,1.504669087E0
6.150678667E0,-2.135515715E-1,2.791495836E-1,-1.355575207E0,1.400397410E0
6.160620667E0,-3.959263739E-1,2.644520223E-1,-1.206223286E0,1.296791110E0
6.170561667E0,-5.290418927E-1,2.560858262E-1,-9.741554832E-1,1.137736428E0
6.180503667E0,-6.451478612E-1,2.049367225E-1,-6.847779500E-1,9.628788418E-1
6.190445667E0,-7.099858814E-1,2.527564216E-1,-4.049781561E-1,8.555542457E-1
6.200386667E0,-6.610031712E-1,2.959679300E-1,-1.649546313E-1,7.427868054E-1
6.210328667E0,-4.349778076E-1,2.428424674E-1,-5.505736431E-2,5.012080112E-1
6.220270667E0,-1.652081081E-1,1.969722301E-1,-8.189610243E-2,2.698124349E-1
6.230211667E0,1.805050090E-2,9.179426908E-2,-1.465662710E-1,1.738783489E-1
6.240153667E0,1.346208845E-1,-5.822657347E-3,-1.684032826E-1,2.156764973E-1
6.250095667E0,2.347765258E-1,-1.918939233E-2,-1.066087747E-1,2.585607872E-1
6.260036667E0,3.652177475E-1,-5.060414314E-2,3.498275835E-2,3.703627624E-1
6.269978667E0,4.891567191E-1,-1.511680663E-1,3.057813120E-1,5.963457813E-1
6.279920667E0,5.887008148E-1,-3.205057704E-1,6.542742685E-1,9.366789293E-1
6.289861667E0,5.632538053E-1,-5.023781508E-1,1.095786924E0,1.330559145E0
6.299803667E0,3.493749359E-1,-5.857161766E-1,1.581646106E0,1.722420010E0
6.309745667E0,1.126144499E-2,-6.269326150E-1,2.045247277E0,2.139207271E0
6.319686667E0,-2.185857318E-1,-6.877272856E-1,2.358527058E0,2.466454627E0
6.329628667E0,-3.960558166E-1,-6.737126791E-1,2.470825174E0,2.591471787E0
6.339570667E0,-4.792850111E-1,-6.277828002E-1,2.381912413E0,2.509448566E0
6.349511667E0,-4.140487956E-1,-6.895025003E-1,2.135763345E0,2.282177725E0
6.359453667E0,-3.466583195E-1,-6.874875498E-1,1.819983294E0,1.976145317E0
6.369395667E0,-4.043677799E-1,-5.832983530E-1,1.428212829E0,1.594848630E0
6.379336667E0,-4.492369008E-1,-5.194151831E-1,1.084709959E0,1.283823049E0
6.389278667E0,-3.533083579E-1,-3.760484719E-1,6.821361780E-1,8.553063862E-1
6.399220667E0,-2.484308707E-1,-2.611886913E-1,3.054071267E-1,4.724520537E-1
6.409161667E0,-1.215113539E-1,-2.875520325E-1,4.890574627E-3,3.122100226E-1
6.419103667E0,1.365681535E-1,-3.459774113E-1,-3.080161178E-1,4.829339070E-1
6.429045667E0,1.653368200E-1,-2.962205297E-1,-4.044846511E-1,5.279116396E-1
6.438986667E0,6.348248944E-2,-1.665304559E-1,-1.582537039E-1,2.383414652E-1
6.448928667E0,-1.075742231E-1,-4.390966594E-2,3.564369106E-1,3.748967104E-1
6.458870667E0,-4.243028018E-1,2.908229649E-2,1.104595755E0,1.183642864E0
6.468811667E0,-8.575041157E-1,8.195457458E-2,1.430187433E0,1.669570590E0
6.478753667E0,-1.244187796E0,7.289957643E-2,1.739723827E0,2.140083320E0
6.488695667E0,-1.817346492E0,1.466575241E-1,2.602250701E0,3.177414895E0
6.498636667E0,-3.175745320E0,3.694814640E-1,3.608071781E0,4.820794215E0
6.508578667E0,-5.604840378E0,8.430106223E-1,4.246338054E0,7.082110521E0
6.518520667E0,-8.659399522E0,1.908012541E0,6.187881453E0,1.081275121E1
6.528461500E0,-9.590706024E0,3.394136778E0,7.857045175E0,1.285437534E1
6.538403500E0,-4.716457701E0,4.549755921E0,3.487113354E0,7.423288472E0
6.548345500E0,2.302114291E0,5.070187935E0,-6.222816812E0,8.350448191E0
6.558286500E0,5.326033441E0,7.139102402E0,-9.547552403E0,1.305715023E1
6.568228500E0,7.362699344E0,9.774345433E0,1.435041207E-1,1.223796403E1
6.578170500E0,1.100912827E1,1.029841325E1,6.486160787E0,1.641123099E1
6.588111500E0,8.836692363E0,6.878174497E0,-1.336815585E0,1.127756588E1
6.598053500E0,5.718468150E0,2.877303141E0,-7.245309473E0,9.668208764E0
6.607995500E0,7.522952814E0,-3.697153527E0,-6.975469826E0,1.090508792E1
6.617936500E0,1.055361614E1,-1.805620427E1,-2.740214877E0,2.109298708E1
6.627878500E0,6.447953911E0,-2.959623166E1,-2.219443725E0,3.037168037E1
6.637819500E0,-7.338892990E-1,-2.894800934E1,-5.064876909E0,2.939691848E1
6.647761500E0,-2.568855498E0,-2.728492555E1,-7.463621702E0,2.840372915E1
6.657703500E0,-6.240180119E0,-3.597923704E1,-6.823863804E0,3.714849207E1
6.667644500E0,-1.376114605E1,-4.181511377E1,-2.238479043E0,4.407815410E1
6.677586500E0,-1.202412422E1,-2.605075842E1,1.288420959E0,2.872075218E1
6.687528500E0,-5.045359488E0,-1.057201031E1,3.190554271E0,1.214095099E1
6.697469500E0,-3.318777570E0,-3.987677114E0,1.781190965E0,5.485298039E0
6.707411500E0,-3.608326135E0,-7.737275487E-1,-8.366086520E-2,3.691296649E0
6.717353500E0,-3.032200854E0,2.171326110E0,-1.304116201E0,3.950900930E0
6.727294500E0,-1.918312996E0,4.736955115E0,-1.041421414E0,5.215671297E0
6.737236500E0,-1.215468100E0,6.525362275E0,3.133773568E-1,6.644992166E0
6.747178500E0,-3.516975962E-1,7.956322711E0,1.862226503E0,8.178914954E0
6.757119500E0,4.520307735E-1,9.246085167E0,3.197013690E0,9.793636672E0
6.767061500E0,1.299230999E0,1.041818176E1,4.697486410E0,1.150186468E1
6.777003500E0,1.928710807E0,1.142117805E1,5.299478896E0,1.273764932E1
6.786944500E0,1.838384628E0,1.192666985E1,4.059951038E0,1.273217633E1
6.796886500E0,1.506055203E0,1.181780522E1,2.067711695E0,1.209149098E1
6.806828500E0,1.276519829E0,1.137522245E1,6.405759233E-1,1.146453340E1
6.816769500E0,1.421528584E0,1.114283071E1,2.767365108E-1,1.123654764E1
6.826711500E0,1.622737268E0,1.133921646E1,1.157175087E0,1.151304306E1
6.836653500E0,1.802708572E0,1.170070420E1,1.367073172E0,1.191742950E1
6.846594500E0,2.204960172E0,1.187588678E1,4.528142273E-1,1.208733125E1
6.856536500E0,2.838444884E0,1.197077539E1,-1.354273617E-2,1.230269955E1
6.866478500E0,3.107446625E0,1.179022156E1,-4.606927657E-1,1.220154854E1
6.876419500E0,2.925049165E0,1.151607953E1,-1.152048980E0,1.193747114E1
6.886361500E0,2.842208152E0,1.126391953E1,-1.774991308E0,1.175179239E1
6.896303500E0,2.820101292E0,1.123102543E1,-2.002524596E0,1.175155344E1
6.906244500E0,2.580632668E0,1.131811971E1,-2.020711191E0,1.178315630E1
6.916186500E0,2.476454873E0,1.134054144E1,-1.910887763E0,1.176402146E1
6.926128500E0,3.021553366E0,1.137185679E1,-1.803273121E0,1.190381055E1
6.936069500E0,3.348719992E0,1.141832344E1,-1.703096868E0,1.202050643E1
6.946011500E0,3.488399742E0,1.146228632E1,-1.754545934E0,1.210914414E1
6.955952500E0,3.361946687E0,1.145174379E1,-1.740980394E0,1.206134877E1
6.965894500E0,3.077790425E0,1.113171515E1,-1.610858211E0,1.166116376E1
6.975836500E0,2.596865123E0,1.049778810E1,-1.507234440E0,1.091874622E1
6.985777500E0,2.059592836E0,1.002302342E1,-1.363167817E0,1.032284591E1
6.995719500E0,1.669749320E0,9.740467250E0,-1.239937747E0,9.960030656E0
7.005661500E0,1.569813827E0,9.417912031E0,-1.194928805E0,9.622330140E0
7.015602500E0,1.839204846E0,9.105077223E0,-1.219032051E0,9.368625557E0
7.025544500E0,2.314866191E0,8.780056817E0,-1.387978722E0,9.185558673E0
7.035486500E0,2.832110596E0,8.423038108E0,-1.767775844E0,9.060543738E0
7.045427500E0,3.554749559E0,7.859333190E0,-1.873921520E0,8.827057522E0
7.055369500E0,5.586951406E0,6.303608961E0,-2.194472898E0,8.704322101E0
7.065311500E0,1.079902495E1,-5.722446595E0,-3.121523797E0,1.261385135E1
7.075252500E0,2.467708140E1,-3.714805101E1,-4.065080216E0,4.478237284E1
7.085194500E0,1.829455082E1,-6.921391268E1,2.497328264E-1,7.159133093E1
7.095136500E0,-9.236957079E0,-6.403249374E1,-8.073903201E0,6.519715902E1
7.105077500E0,-1.315535229E1,-3.857784493E1,-6.084776915E0,4.121089569E1
7.115019500E0,-1.904944156E1,-1.997891145E1,2.450361556E1,3.691158764E1
7.124961500E0,-1.392089549E1,-5.597641286E0,2.184759504E1,2.650362858E1
7.134902500E0,-2.825367002E0,2.008400463E0,3.564630477E0,4.972218977E0
7.144844500E0,8.258751375E-1,5.305130230E0,-1.065679465E0,5.473769197E0
7.154786500E0,1.999678610E0,6.689076712E0,-2.678132358E0,7.477623602E0
7.164727500E0,1.875893785E0,7.450439154E0,-3.253411254E0,8.343422911E0
7.174669500E0,1.452936903E0,7.952524944E0,-3.879037017E0,8.966638545E0
7.184611500E0,8.905240734E-1,8.114044336E0,-4.427083091E0,9.286000932E0
7.194552500E0,3.821560349E-1,7.500229365E0,-3.617482874E0,8.335806266E0
7.204494500E0,3.062441191E-1,6.267065617E0,-2.392723330E0,6.715282707E0
7.214436500E0,3.729503247E-1,5.519065817E0,-1.617713487E0,5.763347670E0
7.224377500E0,5.801662919E-1,5.398600311E0,-9.671581203E-1,5.515149415E0
7.234319500E0,7.649285124E-1,5.388034392E0,-5.711209782E-1,5.471947497E0
7.244260500E0,9.196386757E-1,5.310453535E0,-3.818237668E-1,5.403003001E0
7.254202500E0,8.804390882E-1,5.170586967E0,-3.350659587E-1,5.255702785E0
7.264144500E0,5.820596203E-1,5.011090711E0,-2.535235763E-1,5.051148159E0
7.274085500E0,2.310093109E-1,4.274345632E0,-1.263607057E-1,4.282448238E0
7.284027500E0,2.297197075E-1,3.166754934E0,-1.140428881E-1,3.177123500E0
7.293969500E0,2.357717219E-1,1.887595818E0,1.915608147E-2,1.902359911E0
7.303910500E0,-1.738219339E-1,7.576009279E-1,3.198976600E-1,8.405401499E-1
7.313852500E0,-3.314090735E-1,-2.754477113E-1,6.576737666E-1,7.862812467E-1
7.323794500E0,-9.312034450E-2,-1.453643539E0,1.045956953E0,1.793258733E0
7.333735500E0,1.748162529E-1,-3.201920673E0,1.422457999E0,3.508025581E0
7.343677500E0,4.748021702E-1,-4.972966281E0,2.012604611E0,5.385759747E0
7.353619500E0,1.209317487E0,-6.483602046E0,4.514501889E0,7.992513470E0
7.363560500E0,1.898635946E0,-6.370316336E0,7.075281798E0,9.708005005E0
7.373502500E0,1.043000893E0,-3.770822597E0,6.400612514E0,7.501652783E0
7.383444500E0,2.831280291E-2,-1.442136219E0,4.997008277E0,5.201023958E0
7.393385500E0,-9.251848329E-1,-1.063941818E0,3.654328519E0,3.916893679E0
7.403327500E0,-2.229577534E0,-9.171731973E-1,2.331829841E0,3.354050248E0
7.413269500E0,-3.351814924E0,-7.516174722E-1,1.062069540E0,3.595494933E0
7.423210500E0,-4.138502241E0,-7.401341254E-1,-7.586641710E-2,4.204848991E0
7.433152500E0,-4.047734158E0,-2.584136027E-1,-3.277925340E-1,4.069198613E0
7.443094500E0,-3.151596319E0,4.424909681E-1,-2.664821390E-1,3.193645307E0
7.453035500E0,-1.939794789E0,1.212404963E0,-5.261535144E-1,2.347246715E0
7.462977500E0,-7.709806730E-1,1.657608454E0,-6.460471630E-1,1.938931129E0
7.472919500E0,2.970876718E-1,1.765559165E0,-5.548680210E-1,1.874390240E0
7.482860500E0,1.198817203E0,1.705533988E0,-5.866324353E-1,2.165674603E0
7.492802500E0,1.951092779E0,1.445290207E0,-5.820108326E-1,2.496870726E0
7.502744500E0,2.575419875E0,1.018225948E0,-3.242514968E-1,2.788316812E0
7.512685500E0,2.825373434E0,7.618974620E-1,1.166425967E-1,2.928622249E0
7.522627500E0,2.705578018E0,7.376496434E-1,5.129739268E-1,2.850863318E0
7.532568250E0,2.383896811E0,6.595770353E-1,8.205561447E-1,2.606015783E0
7.542510250E0,1.854222396E0,3.058801299E-1,1.025491771E0,2.140872888E0
7.552452250E0,1.273357362E0,-1.167197800E-1,1.091455380E0,1.681171415E0
7.562393250E0,5.741814474E-1,-5.911365455E-1,9.695268273E-1,1.272442148E0
7.572335250E0,-2.534854232E-1,-1.048517448E0,6.897574389E-1,1.280394089E0
7.582277250E0,-9.943945970E-1,-1.484643722E0,3.466487082E-1,1.820206835E0
7.592218250E0,-1.573755581E0,-1.563318009E0,-4.070477050E-2,2.218631719E0
7.602160250E0,-1.874755040E0,-1.223887140E0,-4.039583651E-1,2.275035945E0
7.612102250E0,-1.881985415E0,-7.018056267E-1,-7.681592453E-1,2.150457827E0
7.622043250E0,-1.814060942E0,-3.402564955E-1,-9.023095751E-1,2.054447408E0
7.631985250E0,-1.706156132E0,-1.230605006E-2,-7.956809199E-1,1.882612098E0
7.641927250E0,-1.435573304E0,3.264079499E-1,-5.997301984E-1,1.589682097E0
7.651868250E0,-9.685703690E-1,5.166248918E-1,-3.751994197E-1,1.160088119E0
7.661810250E0,-4.095521405E-1,6.844078213E-1,-1.774302506E-1,8.170853783E-1
7.671752250E0,1.411899389E-1,7.658186048E-1,-3.538698368E-3,7.787331101E-1
7.681693250E0,6.960757940E-1,7.737550306E-1,1.944994791E-1,1.058795734E0
7.691635250E0,1.176918576E0,6.814485455E-1,4.458642634E-1,1.431189854E0
7.701577250E0,1.479886135E0,5.472988003E-1,7.245729303E-1,1.736261755E0
7.711518250E0,1.485023206E0,4.299744183E-1,9.815264833E-1,1.831274464E0
7.721460250E0,1.244739481E0,3.379199481E-1,1.172884802E0,1.743337324E0
7.731402250E0,8.091419412E-1,2.858955163E-1,1.126135070E0,1.415848552E0
7.741343250E0,2.770868321E-1,1.847492105E-1,8.607827226E-1,9.229606052E-1
7.751285250E0,-1.782093921E-1,-1.190902412E-2,5.048930383E-1,5.355533516E-1
7.761227250E0,-4.440366796E-1,-1.938480628E-1,1.383731890E-1,5.038777467E-1
7.771168250E0,-6.116577874E-1,-2.889167726E-1,-1.665543930E-1,6.966624119E-1
7.781110250E0,-7.515986880E-1,-2.959480494E-1,-3.879557053E-1,8.961001423E-1
7.791051250E0,-7.901695537E-1,-2.759821469E-1,-5.256225507E-1,9.883385729E-1
7.800993250E0,-7.251268809E-1,-2.904300320E-1,-6.127460639E-1,9.927821190E-1
7.810935250E0,-6.327695250E-1,-2.891202557E-1,-7.349143159E-1,1.011971761E0
7.820876250E0,-5.146158615E-1,-2.536007595E-1,-8.191889926E-1,1.000106712E0
7.830818250E0,-3.548080956E-1,-1.878382945E-1,-7.775931430E-1,8.751131959E-1
7.840760250E0,-1.799344669E-1,-1.160052502E-1,-5.903583542E-1,6.279781978E-1
7.850701250E0,-3.856297195E-2,-8.320353985E-2,-2.484060931E-1,2.647933514E-1
7.860643250E0,1.067865300E-1,-7.968994796E-2,2.197968364E-1,2.570301540E-1
7.870585250E0,1.698740400E-1,-7.602666736E-2,7.264369496E-1,7.498985834E-1
7.880526250E0,6.308458641E-2,1.828716695E-2,1.198458111E0,1.200256610E0
7.890468250E0,-1.133286142E-1,1.369371128E-1,1.542693125E0,1.552899619E0
7.900410250E0,-2.365741792E-1,2.439709800E-1,1.646985233E0,1.681680570E0
7.910351250E0,-2.567526280E-1,2.776135200E-1,1.435823565E0,1.484782976E0
7.920293250E0,-1.896518084E-1,2.108722311E-1,9.407246125E-1,9.825465398E-1
7.930235250E0,-4.315113589E-2,1.394134086E-1,3.468263539E-1,3.762800005E-1
7.940176250E0,1.195730750E-1,6.022690594E-2,-2.477115170E-1,2.815776911E-1
7.950118250E0,2.292895717E-1,3.883837581E-2,-7.213382506E-1,7.578990691E-1
7.960060250E0,2.691868783E-1,1.135815793E-1,-9.776298988E-1,1.020354139E0
7.970001250E0,2.090987706E-1,2.153751719E-1,-1.059618387E0,1.101317342E0
7.979943250E0,1.831108937E-1,2.307159269E-1,-9.878555095E-1,1.030833617E0
7.989885250E0,2.077522299E-1,1.898450589E-1,-7.915083468E-1,8.400521403E-1
7.999826250E0,1.990507691E-1,1.196439725E-1,-4.999475364E-1,5.512562271E-1
8.009768250E0,2.064879888E-1,5.339677334E-3,-1.925955892E-1,2.824161161E-1
8.019709250E0,2.129056004E-1,-6.342357874E-2,1.268518353E-1,2.558177733E-1
8.029651250E0,2.234779510E-1,-4.622867167E-2,4.289599264E-1,4.858869242E-1
8.039593250E0,2.458310524E-1,-3.285725892E-2,6.183174006E-1,6.662048586E-1
8.049534250E0,2.617982635E-1,-7.687685251E-2,5.898495734E-1,6.499006850E-1
8.059476250E0,2.567430532E-1,-1.620473957E-1,3.980293250E-1,5.006033334E-1
8.069418250E0,2.698782384E-1,-1.817589444E-1,1.494653571E-1,3.580648969E-1
8.079359250E0,2.701110307E-1,-1.649657410E-1,-5.917725764E-2,3.219869756E-1
8.089301250E0,2.508861896E-1,-1.420236057E-1,-1.638307965E-1,3.315948049E-1
8.099243250E0,2.412197189E-1,-1.430252337E-1,-1.619701394E-1,3.238479525E-1
8.109184250E0,2.563415688E-1,-1.172080225E-1,-1.137586403E-1,3.039568204E-1
8.119126250E0,2.731655431E-1,-1.114198637E-1,-1.974136949E-2,2.956746888E-1
8.129068250E0,2.912648682E-1,-1.096300310E-1,1.079582389E-1,3.294069649E-1
8.139009250E0,3.085816897E-1,-8.143183351E-2,2.568587550E-1,4.096708713E-1
8.148951250E0,3.217176059E-1,-7.380531013E-2,3.957851636E-1,5.153594255E-1
8.158893250E0,3.261810780E-1,-9.359813511E-2,5.003941905E-1,6.046065270E-1
8.168834250E0,3.549758376E-1,-9.003601134E-2,5.567753097E-1,6.664180926E-1
8.178776250E0,3.745401827E-1,-8.613884211E-2,6.029064059E-1,7.149799877E-1
8.188717250E0,4.594207039E-1,-1.196889961E-1,5.800168955E-1,7.495414852E-1
8.198659250E0,5.374824216E-1,-1.467750531E-1,4.919964925E-1,7.432972611E-1
8.208601250E0,5.853355960E-1,-1.709749246E-1,4.217690206E-1,7.414440582E-1
8.218542250E0,6.354470381E-1,-1.902759987E-1,3.650557065E-1,7.571417059E-1
8.228484250E0,6.707871710E-1,-2.288892567E-1,2.126959594E-1,7.399900619E-1
8.238426250E0,7.380866497E-1,-1.941848624E-1,1.392034753E-1,7.757946061E-1
8.248367250E0,7.596703307E-1,-1.393870962E-1,2.742823613E-1,8.196088015E-1
8.258309250E0,6.495016249E-1,-5.510591447E-2,5.343635899E-1,8.428721545E-1
8.268251250E0,2.958200685E-1,4.382897437E-2,6.386112589E-1,7.051629825E-1
8.278192250E0,-2.304888356E-1,1.240790856E-1,6.162140840E-1,6.695076700E-1
8.288134250E0,-8.309466469E-1,2.137040377E-1,1.100834241E0,1.395699743E0
8.298076250E0,-1.194714504E0,3.145012647E-1,1.847059996E0,2.222135104E0
8.308017250E0,-1.769010192E0,5.569057757E-1,1.952201704E0,2.692699871E0
8.317959250E0,-2.603530364E0,5.787164748E-1,2.541672378E0,3.684207051E0
8.327901250E0,-4.405328818E0,3.909454232E-1,3.332307735E0,5.537511639E0
8.337842250E0,-5.997181531E0,7.374730575E-1,3.704929739E0,7.087775194E0
8.347784250E0,-6.694111165E0,2.541236175E0,2.050794677E0,7.448138317E0
8.357726250E0,-6.001718971E0,4.476878564E0,-3.344271138E-1,7.494992580E0
8.367667250E0,-2.495720572E0,5.283454016E0,-1.020225111E0,5.931641155E0
8.377609250E0,2.351791066E0,6.418987974E0,-1.691464418E0,7.042398718E0
8.387550250E0,3.994303471E0,8.063892183E0,-2.251810987E0,9.276393161E0
8.397492250E0,4.965765435E0,9.157816769E0,6.846510655E-1,1.043997995E1
8.407434250E0,7.162436301E0,9.293861597E0,4.944341821E0,1.273274806E1
8.417375250E0,8.858145213E0,5.789832832E0,2.235439076E0,1.081601076E1
8.427317250E0,7.621567860E0,-9.685971200E-2,-6.598439607E-1,7.650690982E0
8.437259250E0,5.217351243E0,-7.130837363E0,-3.344686291E0,9.447566982E0
8.447200250E0,4.141325569E0,-1.734025482E1,-3.961276935E0,1.826271419E1
8.457142250E0,3.566750385E0,-2.470913116E1,-2.909650522E0,2.513421845E1
8.467084250E0,1.562903441E0,-2.733112557E1,-1.510328786E0,2.741740661E1
8.477025250E0,-2.202608714E0,-2.698563932E1,-4.223899949E0,2.740287477E1
8.486967250E0,-7.623647715E0,-3.104556230E1,-5.233329345E0,3.239343574E1
8.496909250E0,-1.258322329E1,-3.171046556E1,-2.875773509E0,3.423683992E1
8.506850250E0,-1.197098122E1,-2.129903499E1,-2.160065689E0,2.452792626E1
8.516792250E0,-5.958035592E0,-1.018841309E1,-2.137543237E-1,1.180456015E1
8.526734792E0,-2.169989437E0,-4.465126246E0,6.469078732E-1,5.006465454E0
8.536675792E0,-2.177759509E0,-2.115189332E0,-6.236792243E-1,3.099296398E0
8.546617792E0,-2.128961864E0,8.769244730E-1,-2.385000912E0,3.315072322E0
8.556559792E0,-1.881869347E0,3.557741872E0,-2.572424054E0,4.776643694E0
8.566500792E0,-1.594218789E0,5.314606227E0,-1.688951284E0,5.799924943E0
8.576442792E0,-8.866738281E-1,6.801398801E0,-9.361047274E-1,6.922536254E0
8.586383792E0,-8.864466637E-2,8.190879089E0,-2.082181799E-1,8.194004694E0
8.596325792E0,7.847261614E-1,9.420842071E0,9.044455630E-1,9.496635312E0
8.606267792E0,1.575447181E0,1.049938439E1,2.504083552E0,1.090823271E1
8.616208792E0,2.361049109E0,1.110608680E1,3.611208227E0,1.191471955E1
8.626150792E0,2.939974768E0,1.132132515E1,3.866439775E0,1.231930239E1
8.636092792E0,3.330971939E0,1.127551339E1,3.624193724E0,1.230314416E1
8.646033792E0,3.589818528E0,1.117911853E1,3.082946207E0,1.213935935E1
8.655975792E0,3.956965491E0,1.127137005E1,2.792658262E0,1.226785633E1
8.665917792E0,4.618644308E0,1.156237077E1,2.489035158E0,1.269707010E1
8.675858792E0,5.227390913E0,1.188150712E1,1.751509475E0,1.309822937E1
8.685800792E0,4.878112456E0,1.195106560E1,7.085450544E-1,1.292772162E1
8.695742792E0,4.216296229E0,1.195805887E1,-3.094429115E-1,1.268337813E1
8.705683792E0,3.389408427E0,1.160493616E1,-6.541163937E-1,1.210745642E1
8.715625792E0,2.763263724E0,1.127841361E1,-1.049841331E0,1.165934847E1
8.725567792E0,2.238544240E0,1.101159814E1,-1.177287828E0,1.129833530E1
8.735508792E0,1.983443231E0,1.085976232E1,-9.451140442E-1,1.107978904E1
8.745450792E0,1.848999956E0,1.083999288E1,-7.819925880E-1,1.102432578E1
8.755391792E0,1.735503746E0,1.084220898E1,-6.243592554E-1,1.099796769E1
8.765333792E0,1.630206209E0,1.081040948E1,-4.644642198E-1,1.094249754E1
8.775275792E0,1.542292883E0,1.078989628E1,-2.977173438E-1,1.090363080E1
8.785216792E0,1.408406263E0,1.075969307E1,-1.390946623E-1,1.085237073E1
8.795158792E0,1.114490413E0,1.066576340E1,-1.221366405E-2,1.072384012E1
8.805100792E0,6.953628722E-1,1.049093984E1,-3.022221118E-1,1.051830245E1
8.815041792E0,4.202638011E-1,1.021453845E1,-1.046071558E0,1.027655988E1
8.824983792E0,4.228474664E-1,9.760924319E0,-1.452884570E0,9.877515736E0
8.834925792E0,8.619404713E-1,9.379588795E0,-1.671865135E0,9.566334740E0
8.844866792E0,1.172701930E0,9.121772777E0,-2.283183931E0,9.476016952E0
8.854808792E0,1.452709739E0,8.838407936E0,-2.966098373E0,9.435335711E0
8.864750792E0,2.278423128E0,8.188147269E0,-3.643699450E0,9.247351693E0
8.874691792E0,5.800541423E0,5.425348399E0,-3.871562521E0,8.835704975E0
8.884633792E0,1.422466653E1,-1.062662682E1,-2.229005969E0,1.789510556E1
8.894575792E0,3.109488707E1,-6.167123370E1,2.187603589E1,7.244856116E1
8.904516792E0,1.363281955E1,-6.984487870E1,1.783072511E1,7.336276718E1
8.914458792E0,-2.431818398E1,-4.652804911E1,4.508430725E0,5.269306761E1
8.924400792E0,-1.956524316E1,-1.077828956E1,-4.167522265E0,2.272308315E1
8.934341792E0,-7.815363883E0,-3.842826964E0,-5.485702189E0,1.029272365E1
8.944283792E0,-3.742881677E0,1.198814279E0,-4.798912797E0,6.202893112E0
8.954224792E0,-1.901770054E0,6.464904989E0,-4.195217017E0,7.937982847E0
8.964166792E0,-5.251822919E-1,9.028640665E0,-5.160192956E0,1.041248097E1
8.974108792E0,5.312179340E-1,1.002998278E1,-7.348495873E0,1.244520545E1
8.984049792E0,5.146771842E-1,1.041371098E1,-7.635873658E0,1.292349935E1
8.993991792E0,9.695528474E-1,1.069655484E1,-5.940696259E0,1.227388244E1
9.003933792E0,2.021576286E0,1.101406449E1,-2.970789594E0,1.158542093E1
9.013874792E0,2.607867244E0,1.057176356E1,-5.589114437E-1,1.090300593E1
9.023816792E0,2.543360761E0,9.384232069E0,1.044144316E0,9.778687685E0
9.033758792E0,2.417011202E0,8.685894426E0,1.959396118E0,9.226371891E0
9.043699792E0,2.032370246E0,8.423742113E0,2.709897941E0,9.079289998E0
9.053641792E0,1.601899692E0,8.059830122E0,2.815987483E0,8.686583317E0
9.063583792E0,8.108905511E-1,6.803114374E0,2.365205748E0,7.248041591E0
9.073524792E0,-1.316740340E-1,3.986555618E0,1.765339894E0,4.361924884E0
9.083466792E0,-8.363260853E-1,1.789583035E0,1.642595143E0,2.569079128E0
9.093408792E0,-2.096685379E0,7.710255504E-1,1.178668940E0,2.525832625E0
9.103349792E0,-3.225584940E0,4.889687312E-1,9.877361532E-1,3.408681759E0
9.113291792E0,-3.293615540E0,1.322482306E-1,9.898423203E-1,3.441682835E0
9.123232792E0,-2.559428910E0,-5.137726200E-1,9.586966145E-1,2.780959879E0
9.133174792E0,-1.267270995E0,-1.231016065E0,1.035539699E0,2.047857123E0
9.143116792E0,1.296038273E-1,-2.379962951E0,1.257330290E0,2.694791320E0
9.153057792E0,1.203279359E0,-4.061916872E0,1.526925377E0,4.503171216E0
9.162999792E0,1.994067037E0,-6.014423801E0,1.941716623E0,6.627206081E0
9.172941792E0,2.519847645E0,-7.394968373E0,2.243740368E0,8.128318414E0
9.182882792E0,2.426014013E0,-7.457996095E0,1.703007406E0,8.025427339E0
9.192824792E0,1.836583247E0,-6.391584413E0,9.464187042E-1,6.717223958E0
9.202766792E0,1.385354784E0,-4.610079891E0,1.418649123E0,5.018427026E0
9.212707792E0,1.424593695E0,-2.857978678E0,2.677551144E0,4.167348011E0
9.222649792E0,8.226838003E-1,-1.544839053E0,3.818231821E0,4.200265536E0
9.232591792E0,-6.952427119E-1,-5.392963010E-1,4.278080249E0,4.367627908E0
9.242532792E0,-2.324461911E0,-1.587051272E-2,3.842697741E0,4.491069024E0
9.252474792E0,-3.716492608E0,3.783119291E-1,3.027195929E0,4.808258771E0
9.262415792E0,-4.466191901E0,9.276584244E-1,1.950123603E0,4.960887251E0
9.272357792E0,-4.818181711E0,1.415117404E0,6.966758645E-1,5.069791863E0
9.282299792E0,-4.455859578E0,1.954371021E0,-3.713823573E-1,4.879772077E0
9.292240792E0,-3.496060179E0,2.426054213E0,-1.327614992E0,4.457660528E0
9.302182792E0,-2.344352092E0,2.627852150E0,-1.960629880E0,4.030590922E0
9.312124792E0,-1.169926403E0,2.596595859E0,-2.430448980E0,3.744078002E0
9.322065792E0,-8.195201643E-2,2.398371740E0,-2.667264723E0,3.587924781E0
9.332007792E0,6.851624776E-1,1.985606847E0,-2.564933771E0,3.315262798E0
9.341949792E0,1.146806878E0,1.509268686E0,-2.671277082E0,3.275481526E0
9.351890792E0,1.531549940E0,9.390803754E-1,-2.335405998E0,2.946462005E0
9.361832792E0,1.686168010E0,4.018539888E-1,-2.006723481E0,2.651714222E0
9.371774792E0,1.843344675E0,-1.365640604E-1,-1.746417135E0,2.542939665E0
9.381715792E0,2.097569771E0,-6.383276689E-1,-1.247706943E0,2.522703663E0
9.391657792E0,2.520646375E0,-9.697139382E-1,-6.797189391E-1,2.784963394E0
9.401599792E0,2.989184934E0,-1.105753503E0,-1.409540769E-1,3.190264164E0
9.411540792E0,3.035791336E0,-1.134183835E0,4.838736136E-1,3.276665330E0
9.421482792E0,2.811693873E0,-1.197308037E0,1.210549130E0,3.287034859E0
9.431423792E0,2.447304603E0,-1.213719417E0,1.814089301E0,3.279227749E0
9.441365792E0,1.615836530E0,-1.087687361E0,2.064792180E0,2.838548614E0
9.451307792E0,5.857644162E-1,-1.050172795E0,2.225168442E0,2.529299793E0
9.461248792E0,-3.771444594E-1,-9.627323627E-1,2.374383538E0,2.589746847E0
9.471190792E0,-1.107135201E0,-6.975523621E-1,2.402365973E0,2.735633367E0
9.481132792E0,-1.556559651E0,-3.363277513E-1,2.270044652E0,2.772922110E0
9.491073792E0,-1.648060097E0,8.681945801E-3,1.988462627E0,2.582665499E0
9.501015792E0,-1.420930706E0,2.060687435E-1,1.587314397E0,2.140344691E0
9.510957792E0,-1.057628726E0,2.992359388E-1,1.195516961E0,1.624001685E0
9.520898792E0,-6.583893196E-1,4.238383502E-1,7.563315705E-1,1.088647274E0
9.530840292E0,-3.189223444E-1,5.620834851E-1,2.967380083E-1,7.111278026E-1
9.540782292E0,-5.072196454E-2,6.548787975E-1,-2.042596149E-1,6.878669548E-1
9.550723292E0,1.261323354E-1,6.708335102E-1,-6.368670344E-1,9.335558815E-1
9.560665292E0,2.552577142E-1,6.201977921E-1,-8.375984395E-1,1.073020479E0
9.570607292E0,3.385011613E-1,5.663127762E-1,-1.008366373E0,1.205029435E0
9.580548292E0,3.516053563E-1,4.740115535E-1,-1.294999223E0,1.423143094E0
9.590490292E0,3.768524641E-1,3.398986459E-1,-1.592603788E0,1.671507013E0
9.600431292E0,3.911565077E-1,2.256428826E-1,-1.815352299E0,1.870674235E0
9.610373292E0,3.509358501E-1,1.702615643E-1,-1.892678218E0,1.932453313E0
9.620315292E0,2.318199543E-1,1.422931623E-1,-1.859456677E0,1.879246384E0
9.630256292E0,1.272346086E-1,1.955238748E-1,-1.709750415E0,1.725591120E0
9.640198292E0,1.144396582E-1,2.901540434E-1,-1.540631397E0,1.571887688E0
9.650140292E0,9.820815302E-2,3.908957219E-1,-1.320969046E0,1.381087806E0
9.660081292E0,1.057495263E-1,4.033011746E-1,-9.315082312E-1,1.020559839E0
9.670023292E0,1.230727798E-1,2.352381635E-1,-4.652758133E-1,5.356915952E-1
9.679965292E0,3.903074920E-2,-3.479034841E-2,6.325050116E-2,8.206335127E-2
9.689906292E0,-6.050779156E-2,-1.926990849E-1,6.002354344E-1,6.333061715E-1
9.699848292E0,-1.648987904E-1,-1.942199457E-1,1.144174973E0,1.172198518E0
9.709789292E0,-2.655679634E-1,-1.460459054E-1,1.550301522E0,1.579648872E0
9.719731292E0,-2.715718114E-1,-1.221576905E-1,1.773442966E0,1.798269641E0
9.729673292E0,-1.773164492E-1,-1.495103806E-1,1.733928652E0,1.749372186E0
9.739614292E0,-7.039411761E-2,-2.526628661E-1,1.522933044E0,1.545353977E0
9.749556292E0,8.691008985E-2,-3.727605826E-1,1.276626102E0,1.332770805E0
9.759498292E0,2.589025030E-1,-4.351702541E-1,1.095562464E0,1.206922023E0
9.769439292E0,3.694148789E-1,-4.393445814E-1,1.000816521E0,1.153743785E0
9.779381292E0,3.830692238E-1,-4.206007469E-1,9.497351718E-1,1.107088034E0
9.789323292E0,3.699563310E-1,-4.003658724E-1,8.203433792E-1,9.849486171E-1
9.799264292E0,1.999090672E-1,-4.606348783E-1,7.567209951E-1,9.081711241E-1
9.809206292E0,4.289904781E-2,-5.669115311E-1,9.435056213E-1,1.101558836E0
9.819148292E0,1.090008706E-2,-6.598454225E-1,1.240873886E0,1.405447543E0
9.829089292E0,-1.303209883E-1,-6.753972620E-1,1.551244093E0,1.696909915E0
9.839031292E0,-2.760663102E-1,-5.700386220E-1,1.676811880E0,1.792443784E0
9.848973292E0,-4.228779085E-1,-3.430029327E-1,1.617758510E0,1.706932727E0
9.858914292E0,-4.368432156E-1,-2.302423024E-1,1.414799316E0,1.498499455E0
9.868856292E0,-3.725150726E-1,-1.900660837E-1,1.087913064E0,1.165524530E0
9.878797292E0,-3.794317074E-1,-9.432728291E-2,7.695801187E-1,8.632031140E-1
9.888739292E0,-4.817111671E-1,-6.023976982E-2,5.111823034E-1,7.049693793E-1
9.898681292E0,-5.982046233E-1,-1.163362026E-2,2.235881893E-1,6.387298261E-1
9.908622292E0,-8.365935954E-1,6.742541313E-2,1.043423847E-1,8.457673223E-1
9.918564292E0,-1.114392765E0,5.791491687E-2,1.200807595E-1,1.122338968E0
9.928506292E0,-1.229868549E0,1.865560001E-1,2.686058843E-1,1.272607131E0
9.938447292E0,-1.406299219E0,4.272431839E-1,5.347278714E-1,1.564016664E0
9.948389292E0,-1.904009537E0,6.258690065E-1,9.389113909E-1,2.213259797E0
9.958331292E0,-2.509111280E0,5.539546859E-1,1.235934743E0,2.851322483E0
9.968272292E0,-2.972409565E0,3.501675260E-1,1.184709114E0,3.218908449E0
9.978214292E0,-3.038918427E0,4.074550366E-1,2.786501583E-1,3.078748240E0
9.988156292E0,-2.724306650E0,1.020028644E0,-1.783284999E0,3.412097676E0
9.998097292E0,-2.821321313E0,2.031226823E0,-3.205354743E0,4.728639909E0
1.000803929E1,-2.622837286E0,2.911046838E0,-3.871081295E0,5.508061320E0
1.001798029E1,-2.363030584E0,3.390689260E0,-2.118645182E0,4.644280849E0
1.002792229E1,-7.143606951E-1,3.578483115E0,5.430775492E-1,3.689279853E0
1.003786429E1,1.986705831E0,3.291059137E0,1.232114757E0,4.036852372E0
1.004780529E1,3.006217874E0,2.657039697E0,1.265818401E-1,4.014128650E0
1.005774729E1,2.878324649E0,2.076704713E0,2.709814619E-1,3.559618828E0
1.006768929E1,1.801485627E0,1.570971429E0,1.914663749E0,3.062554321E0
1.007763029E1,3.101498399E-1,9.184274250E-1,1.219052955E0,1.557495414E0
1.008757229E1,-6.619135827E-2,-2.902774197E-1,4.587444735E-1,5.468900879E-1
1.009751429E1,6.693971416E-1,-1.541670447E0,1.636038076E0,2.345519321E0
1.010745529E1,1.837607679E0,-2.027952967E0,2.402818255E-1,2.747204138E0
1.011739729E1,3.128943329E0,-1.502057900E0,-2.106791707E0,4.060176792E0
1.012733929E1,3.896877164E0,-5.504241371E-1,-1.638364098E0,4.262963204E0
1.013728029E1,3.138594451E0,-4.334307075E-2,-1.753268464E0,3.595358682E0
1.014722229E1,1.310297878E0,3.721337610E-1,-2.024311906E0,2.439918597E0
1.015716329E1,-3.476206250E-1,7.605292135E-1,-3.601320586E-1,9.104613573E-1
1.016710529E1,-1.993749387E0,5.456925702E-1,1.206018049E0,2.393177080E0
1.017704729E1,-3.252625681E0,-4.814544743E-1,1.437707245E0,3.588645197E0
1.018698829E1,-3.930762948E0,-1.532990840E0,7.189654505E-1,4.279938036E0
1.019693029E1,-3.853006967E0,-2.142478872E0,-3.995607108E-2,4.408795174E0
1.020687229E1,-2.638185934E0,-2.898572972E0,9.335383844E-1,4.029050039E0
1.021681329E1,-1.677924897E0,-3.697946994E0,2.197403815E0,4.617231579E0
1.022675529E1,-1.192467127E0,-3.684097863E0,1.132717354E0,4.034551217E0
1.023669729E1,-3.703073832E-1,-2.600431632E0,3.038031989E-1,2.644176359E0
1.024663829E1,3.606053907E-1,-8.148036540E-1,1.109458884E0,1.422968818E0
1.025658029E1,7.776223791E-1,7.328531724E-1,1.515001296E0,1.853914579E0
1.026652229E1,1.143565985E0,1.615291570E0,6.199253118E-1,2.073937658E0
1.027646329E1,1.746432922E0,1.944739487E0,-4.923554385E-1,2.659784484E0
1.028640529E1,2.787654800E0,1.740369945E0,-9.077691203E-1,3.409391676E0
1.029634629E1,4.355715485E0,7.604830205E-1,-1.700876096E-1,4.424875321E0
1.030628829E1,5.568059052E0,-9.102302134E-1,-3.045051572E-1,5.650179116E0
1.031623029E1,6.046870585E0,-2.668003226E0,1.147144774E-1,6.610298367E0
1.032617129E1,5.868716449E0,-4.938344332E0,-3.442109674E-1,7.677731351E0
1.033611329E1,4.716470857E0,-6.929592572E0,-3.029375771E0,8.912994341E0
1.034605529E1,3.644300252E0,-8.198148932E0,-5.528364644E0,1.053818703E1
1.035599629E1,3.132469492E0,-1.017842136E1,-5.727847084E0,1.209218172E1
1.036593829E1,2.162616390E0,-1.335849275E1,-5.539070311E0,1.462215914E1
1.037588029E1,-1.618192958E0,-2.125495400E1,-5.595315848E0,2.203858384E1
1.038582129E1,-9.829285287E0,-3.622490196E1,-4.011591641E0,3.774852631E1
1.039576329E1,-1.474702286E1,-3.608377356E1,-2.379502190E0,3.905349445E1
1.040570529E1,-8.795481772E0,-1.792895717E1,5.955481967E-1,1.997905609E1
1.041564629E1,-2.957718143E0,-6.682561744E0,2.810329717E0,7.829602877E0
1.042558829E1,-1.734803688E0,-3.396299078E0,4.843763280E0,6.164935845E0
1.043552929E1,-2.228191160E0,-1.266281793E0,4.456036749E0,5.140483336E0
1.044547129E1,-2.596589427E0,1.151790386E0,3.012278513E0,4.140376744E0
1.045541329E1,-2.429953136E0,3.351491865E0,2.470624030E0,4.820907908E0
1.046535429E1,-1.751078535E0,4.931781417E0,2.406702268E0,5.760291641E0
1.047529629E1,-2.259653565E-1,6.690694637E0,3.189543872E0,7.415500332E0
1.048523829E1,1.370722858E0,8.594840999E0,4.423574177E0,9.763103064E0
1.049517929E1,2.312590455E0,9.814468442E0,5.139182156E0,1.131737861E1
1.050512129E1,3.051689916E0,1.059683174E1,4.644626995E0,1.196570994E1
1.051506329E1,3.174535823E0,1.101295002E1,2.819272449E0,1.180300991E1
1.052500429E1,2.849683818E0,1.093481367E1,7.288975310E-1,1.132352152E1
1.053494613E1,2.353090902E0,1.059173531E1,-3.194064939E-1,1.085467246E1
1.054488713E1,2.108738830E0,1.046489751E1,-4.791150033E-1,1.068599132E1
1.055482913E1,1.997517040E0,1.055083053E1,3.031179053E-1,1.074253134E1
1.056477113E1,1.933116977E0,1.098704568E1,2.077108755E0,1.134753254E1
1.057471213E1,2.076089439E0,1.164850727E1,2.494535049E0,1.209216995E1
1.058465413E1,2.046452973E0,1.160552322E1,3.878820304E-1,1.179095380E1
1.059459613E1,1.866542918E0,1.143048097E1,-1.339179615E0,1.165904283E1
1.060453713E1,2.012506085E0,1.146330023E1,-2.685768237E0,1.194448759E1
1.061447913E1,1.975110071E0,1.159824695E1,-3.208036276E0,1.219474841E1
1.062442113E1,1.582388264E0,1.194515991E1,-3.144119777E0,1.245296299E1
1.063436213E1,1.307925516E0,1.263064538E1,-2.842640262E0,1.301247384E1
1.064430413E1,1.338952304E0,1.290362381E1,-2.180921391E0,1.315495035E1
1.065424613E1,1.231668322E0,1.287435498E1,-1.440513031E0,1.301311265E1
1.066418713E1,1.358294601E0,1.263630080E1,-9.132941544E-1,1.274186675E1
1.067412913E1,1.532225586E0,1.211038819E1,-8.098113012E-1,1.223376523E1
1.068407013E1,1.673994545E0,1.139914458E1,-7.942699867E-1,1.154874970E1
1.069401213E1,1.631689794E0,1.074938092E1,-3.387408972E-1,1.087779147E1
1.070395412E1,8.238139209E-1,1.022977278E1,2.220361446E0,1.050032978E1
1.071389513E1,4.377368894E-1,9.854654016E0,3.270795611E0,1.039249360E1
1.072383712E1,1.261087418E0,9.468158909E0,1.422025890E0,9.657045730E0
1.073377913E1,1.886705726E0,9.159955096E0,-9.275175065E-1,9.398123460E0
1.074372012E1,1.890361843E0,8.889310287E0,-2.074116589E0,9.321762972E0
1.075366213E1,1.896463851E0,8.563950743E0,-3.029170534E0,9.279746850E0
1.076360413E1,2.389864334E0,8.020566069E0,-3.736625741E0,9.165331610E0
1.077354513E1,4.460620966E0,6.967647421E0,-3.669145948E0,9.050297342E0
1.078348713E1,6.353240712E0,4.173714466E0,-7.567367095E-1,7.639123669E0
1.079342813E1,1.205667333E1,-8.095082400E0,1.550840051E0,1.460475387E1
1.080337013E1,2.431823778E1,-2.702996356E1,3.384981793E0,3.651648560E1
1.081331213E1,2.850038627E1,-4.906023497E1,1.613557636E1,5.898758765E1
1.082325313E1,2.943203015E0,-6.893668917E1,2.957489634E1,7.507066039E1
1.083319513E1,-2.230338550E1,-6.034911743E1,9.208861792E-1,6.434520192E1
1.084313713E1,-1.929293482E1,-2.479004259E1,-1.307193825E1,3.402409610E1
1.085307813E1,-9.570893903E0,-8.174833159E0,-1.375300088E1,1.864336183E1
1.086302013E1,-3.479862514E0,-6.550349182E-1,-9.470021247E0,1.011038161E1
1.087296213E1,-5.212390758E-1,4.835853751E0,-5.934059084E0,7.672693718E0
1.088290313E1,7.767821342E-1,7.762383431E0,-2.357524846E0,8.149595721E0
1.089284513E1,1.782487293E0,9.080435886E0,5.129684816E-1,9.267940089E0
1.090278713E1,2.430456582E0,9.120027968E0,-2.940681696E-2,9.438373488E0
1.091272813E1,2.520943706E0,7.980015044E0,-1.393123249E0,8.483901794E0
1.092267013E1,1.914636121E0,5.984996518E0,-1.913129001E0,6.568567376E0
1.093261113E1,8.713558772E-1,3.811669491E0,-1.475523966E0,4.179145409E0
1.094255313E1,-4.771898076E-1,1.948527898E0,-1.033589945E0,2.256718693E0
1.095249513E1,-2.001955662E0,8.280850196E-1,-5.664279664E-1,2.239283795E0
1.096243613E1,-2.579766988E0,7.208599484E-1,-4.358032152E-2,2.678943079E0
1.097237813E1,-2.710604285E0,1.076616828E0,2.631763060E-1,2.928436640E0
1.098232013E1,-2.378345903E0,2.254133794E0,4.351627989E-1,3.305603585E0
1.099226113E1,-1.879468188E0,2.993820607E0,1.006246099E0,3.675308655E0
1.100220313E1,-1.284481690E0,3.115249735E0,1.353588908E0,3.631373990E0
1.101214513E1,-8.969093791E-1,2.781225201E0,1.424006342E0,3.250762082E0
1.102208613E1,-8.512215748E-1,2.778301594E0,1.501814071E0,3.270930054E0
1.103202813E1,-9.505999750E-1,2.843011560E0,1.671547047E0,3.432262311E0
1.104196913E1,-9.004609779E-1,2.682989640E0,1.851604452E0,3.381967242E0
1.105191113E1,-6.520705260E-1,2.197359084E0,1.949107942E0,3.008754673E0
1.106185313E1,-3.487351044E-1,1.428562492E0,2.039012976E0,2.513957216E0
1.107179413E1,-1.954734425E-1,4.235255241E-1,2.070848141E0,2.122733087E0
1.108173613E1,-4.205127463E-2,-7.010343790E-1,1.965347999E0,2.087057801E0
1.109167812E1,-5.377684236E-2,-1.786896240E0,1.599514028E0,2.398819552E0
1.110161913E1,5.790117592E-2,-2.098083887E0,8.935656488E-1,2.281176914E0
1.111156112E1,4.931456897E-1,-1.919250305E0,2.406982934E-1,1.996158829E0
1.112150313E1,8.663367735E-1,-1.571974227E0,-8.737844269E-2,1.797019022E0
1.113144412E1,1.072066525E0,-1.340972371E0,-9.516343474E-2,1.719473644E0
1.114138613E1,9.655377106E-1,-1.284531537E0,1.026642521E-1,1.610224919E0
1.115132813E1,6.799558975E-1,-1.232101893E0,2.859814703E-1,1.436036385E0
1.116126913E1,2.935597542E-1,-1.107129938E0,4.006418610E-1,1.213436414E0
1.117121113E1,-2.686655259E-1,-9.023370570E-1,6.079899752E-1,1.120734196E0
1.118115213E1,-7.506241764E-1,-5.980485392E-1,9.258025181E-1,1.333495036E0
1.119109413E1,-1.011500334E0,-7.311943173E-2,1.177230452E0,1.553818173E0
1.120103613E1,-1.035659421E0,5.659812391E-1,1.137532536E0,1.639178291E0
1.121097713E1,-1.001778607E0,1.074563870E0,9.106044352E-1,1.728423654E0
1.122091913E1,-8.468735853E-1,1.339738024E0,5.503352594E-1,1.677784772E0
1.123086113E1,-4.985569954E-1,1.277144165E0,1.496571457E-1,1.379149578E0
1.124080213E1,-6.396707743E-2,1.292633439E0,-2.030410187E-1,1.310045286E0
1.125074413E1,5.133155139E-1,1.130139316E0,-5.109460759E-1,1.342301599E0
1.126068513E1,1.073335078E0,8.080840337E-1,-6.264952433E-1,1.482411645E0
1.127062713E1,1.492339535E0,3.747468817E-1,-5.030593514E-1,1.618820936E0
1.128056913E1,1.798590378E0,2.013664126E-2,-2.124503946E-1,1.811206229E0
1.129051013E1,1.907221997E0,-1.785669494E-1,6.122740109E-2,1.916541337E0
1.130045213E1,1.625951921E0,-3.085008520E-1,2.693882783E-1,1.676741623E0
1.131039413E1,7.948400903E-1,-3.467679548E-1,4.815065145E-1,9.919008555E-1
1.132033513E1,-1.918633716E-1,-4.553870022E-1,5.490033003E-1,7.386430118E-1
1.133027713E1,-8.807264788E-1,-5.468854022E-1,4.218146654E-1,1.119236519E0
1.134021913E1,-1.123810875E0,-5.315311986E-1,1.956501746E-1,1.258473396E0
1.135016013E1,-9.656853528E-1,-3.828242254E-1,-3.804191194E-2,1.039494962E0
1.136010213E1,-6.724088962E-1,-2.174146807E-1,-2.425986020E-1,7.471659446E-1
1.137004413E1,-3.913417183E-1,-9.284559846E-2,-3.718325929E-1,5.477482294E-1
1.137998513E1,-1.238615692E-1,4.990890920E-2,-4.133863791E-1,4.344201721E-1
1.138992713E1,4.367139190E-3,1.562902272E-1,-3.481782667E-1,3.816723889E-1
1.139986813E1,-1.709126517E-2,1.451705772E-1,-1.948981861E-1,2.436224759E-1
1.140981013E1,3.270201534E-3,5.613794804E-2,6.345869858E-2,8.478897247E-2
1.141975213E1,9.502734080E-2,-8.725039780E-2,4.556068210E-1,4.735191683E-1
1.142969313E1,5.319986835E-2,-1.622473705E-1,9.464431894E-1,9.617219692E-1
1.143963513E1,-1.250789595E-1,-1.008901978E-1,1.383084018E0,1.392388229E0
1.144957713E1,-2.901847413E-1,-1.427012980E-2,1.627579494E0,1.653307542E0
1.145951813E1,-3.643021466E-1,2.097337782E-2,1.640822268E0,1.680908579E0
1.146946013E1,-3.332312120E-1,-4.082935274E-2,1.490344173E0,1.527689703E0
1.147940212E1,-2.841398898E-1,-1.296333557E-1,1.296668018E0,1.333749689E0
1.148934313E1,-1.838399684E-1,-2.250254166E-1,1.069813592E0,1.108573270E0
1.149928512E1,-9.003133357E-2,-2.808750969E-1,8.550477004E-1,9.044904815E-1
1.150922613E1,-7.483208120E-2,-2.415250897E-1,7.059846318E-1,7.498989996E-1
1.151916812E1,-5.566432357E-2,-1.401513273E-1,5.765472309E-1,5.959426322E-1
1.152911063E1,-6.559698880E-3,-1.192130327E-2,3.974796867E-1,3.977125199E-1
1.153905163E1,5.917557657E-2,1.070239270E-1,2.076568655E-1,2.409922065E-1
1.154899363E1,1.458266348E-1,1.870430732E-1,7.613776445E-2,2.490933114E-1
1.155893563E1,1.934826118E-1,2.826473880E-1,-5.000536999E-2,3.461583511E-1
1.156887663E1,1.500486168E-1,3.963669616E-1,-2.300306332E-1,4.822192944E-1
1.157881863E1,1.072857361E-1,4.423962432E-1,-3.154385734E-1,5.538286366E-1
1.158876063E1,7.364392698E-2,4.766860700E-1,-3.856191945E-1,6.175396347E-1
1.159870163E1,4.931395501E-2,4.951205868E-1,-5.101531935E-1,7.126237032E-1
1.160864363E1,5.319372877E-2,5.172920591E-1,-5.748140430E-1,7.751334280E-1
1.161858463E1,-1.180172771E-2,5.233790106E-1,-5.929965448E-1,7.910181867E-1
1.162852663E1,-2.616161227E-2,4.316923302E-1,-5.803045785E-1,7.237375918E-1
1.163846863E1,-3.453394800E-2,2.665476644E-1,-5.322229242E-1,5.962394586E-1
1.164840963E1,-3.299174488E-2,6.449244976E-2,-3.453505898E-1,3.528664920E-1
1.165835163E1,-9.731140941E-2,-4.236424685E-2,-1.740985072E-1,2.038983325E-1
1.166829362E1,-1.325483389E-1,-8.546348870E-2,4.493009644E-3,1.577759715E-1
1.167823463E1,1.109640732E-2,-1.562054425E-1,8.408705413E-2,1.777467390E-1
1.168817663E1,1.884635080E-1,-2.022703922E-1,2.400047680E-2,2.775028438E-1
1.169811863E1,2.583321802E-1,-1.421078056E-1,-1.511540329E-1,3.313271577E-1
1.170805963E1,2.680318339E-1,-7.411287367E-2,-4.193424261E-1,5.031717921E-1
1.171800163E1,2.454102722E-1,-5.193555415E-2,-7.046771944E-1,7.479929490E-1
1.172794263E1,2.155785088E-1,-3.042715609E-2,-9.149968636E-1,9.405419532E-1
1.173788463E1,1.718970305E-1,1.484023333E-2,-9.489352727E-1,9.644931173E-1
1.174782663E1,7.494931787E-2,5.998775482E-2,-7.431752622E-1,7.493499859E-1
1.175776763E1,-8.889375776E-3,1.021742463E-1,-4.727345216E-1,4.837318736E-1
1.176770963E1,-4.425275132E-2,9.120720863E-2,-1.654142225E-1,1.940075408E-1
1.177765163E1,-2.225187153E-2,1.069151688E-1,1.353852618E-1,1.739401282E-1
1.178759263E1,4.171155140E-2,1.605551863E-1,3.839188242E-1,4.182242041E-1
1.179753463E1,5.316858575E-2,2.242699564E-1,5.589341748E-1,6.045918653E-1
1.180747663E1,3.564930439E-2,2.660658538E-1,6.628087914E-1,7.151065693E-1
1.181741763E1,-3.085868061E-3,2.650238800E-1,7.495732856E-1,7.950517530E-1
1.182735963E1,1.903721854E-2,2.138239056E-1,8.000300789E-1,8.283303721E-1
1.183730063E1,7.259756774E-2,1.555394447E-1,8.000581455E-1,8.182639928E-1
1.184724263E1,2.276861921E-2,3.998559952E-2,7.807366061E-1,7.820913670E-1
1.185718462E1,-1.012196884E-2,-7.162839174E-3,7.380110013E-1,7.381151662E-1
1.186712563E1,-5.414317042E-2,-6.122034788E-4,6.884885931E-1,6.906145094E-1
1.187706762E1,-1.285460660E-1,-4.776941299E-2,6.752832413E-1,6.890670968E-1
1.188700963E1,-1.869840163E-1,-9.415712893E-2,6.184272552E-1,6.529018741E-1
1.189695062E1,-2.439532922E-1,-5.329854012E-2,5.350260794E-1,5.904293767E-1
1.190689263E1,-3.493439457E-1,6.831302047E-3,5.434636116E-1,6.460963985E-1
1.191683463E1,-4.313688330E-1,2.115814984E-2,5.928024173E-1,7.334449150E-1
1.192677563E1,-4.844340692E-1,-3.410096169E-3,6.002225339E-1,7.713333173E-1
1.193671763E1,-5.513323559E-1,-4.293902814E-2,6.307882690E-1,8.388712459E-1
1.194665863E1,-7.018006566E-1,1.011685252E-2,7.283899927E-1,1.011522859E0
1.195660063E1,-7.882805376E-1,8.161017358E-2,9.133023405E-1,1.209201220E0
1.196654263E1,-7.657437605E-1,6.891879201E-2,9.116358840E-1,1.192557458E0
1.197648363E1,-7.786919810E-1,1.234294599E-1,9.392891210E-1,1.226319732E0
1.198642563E1,-8.423297140E-1,1.577391672E-1,1.013190910E0,1.327010479E0
1.199636763E1,-8.566007209E-1,1.470715070E-1,1.240278640E0,1.514491970E0
1.200630863E1,-1.019523737E0,1.062801611E-1,1.804645463E0,2.075444379E0
1.201625063E1,-1.215683497E0,1.454839879E-1,2.119183565E0,2.447445798E0
1.202619163E1,-1.375377096E0,2.512911093E-1,1.906606870E0,2.364309441E0
1.203613363E1,-1.433766222E0,3.598195249E-1,1.330426918E0,1.988766314E0
1.204607563E1,-1.828749732E0,4.878945976E-1,1.397983893E0,2.353024795E0
1.205601663E1,-2.732157707E0,4.471254712E-1,1.491350479E0,3.144635618E0
1.206595863E1,-3.002680893E0,3.286462641E-1,6.536825303E-1,3.090534220E0
1.207590063E1,-2.889700407E0,2.089941055E-1,-2.500129811E-1,2.908015384E0
1.208584163E1,-2.937304344E0,7.592024803E-2,-1.176669558E0,3.165133796E0
1.209578363E1,-2.969791474E0,3.513650358E-1,-4.181729829E-1,3.019600542E0
1.210572563E1,-1.760761232E0,9.277198201E-1,9.311515510E-2,1.992389172E0
1.211566663E1,-1.598112743E-1,1.417464477E0,-3.873223422E-1,1.478094646E0
1.212560863E1,7.529576540E-1,1.960615847E0,-1.285391078E0,2.462354554E0
1.213555063E1,1.731926711E0,2.295406950E0,-1.504603339E0,3.245349659E0
1.214549163E1,2.876764612E0,2.544533420E0,-1.459696138E0,4.108666180E0
1.215543363E1,3.581303812E0,3.223378785E0,-1.895170886E0,5.177603739E0
1.216537463E1,3.865046384E0,3.917847911E0,-2.289031146E0,5.960518382E0
1.217531663E1,4.412140239E0,4.086902025E0,-7.258262810E-1,6.057769675E0
1.218525863E1,4.720941053E0,3.461973251E0,1.876190532E0,6.147571401E0
1.219519963E1,3.465543853E0,2.354434007E0,2.637422288E0,4.950691872E0
1.220514163E1,1.307007942E0,1.158487787E0,2.451203672E0,3.009777925E0
1.221508363E1,-7.062544808E-1,-6.099230647E-2,1.747503548E0,1.885811258E0
1.222502463E1,-1.381041732E0,-1.379171062E0,1.573073503E0,2.506780670E0
1.223496663E1,-1.533622339E0,-2.232818354E0,1.361678824E0,3.031772501E0
1.224490763E1,-1.917756487E0,-2.460921745E0,-2.061123052E-1,3.126724814E0
1.225484963E1,-1.322198277E0,-2.518025068E0,-3.358029637E-1,2.863812521E0
1.226479162E1,-2.152767925E-1,-2.665847358E0,1.247656657E0,2.951225739E0
1.227473263E1,7.778425267E-1,-3.076359318E0,1.794791150E0,3.645586500E0
1.228467462E1,1.499346107E0,-3.796022927E0,2.397565994E-1,4.088436380E0
1.229461663E1,2.401489914E0,-4.781552414E0,-9.441788551E-1,5.433403261E0
1.230455763E1,2.682223070E0,-5.792795032E0,-1.336015102E0,6.521942289E0
1.231449963E1,2.477562920E0,-7.737430438E0,-1.175989673E0,8.209086400E0
1.232444163E1,1.978303967E0,-1.102915265E1,-3.841585600E-1,1.121175600E1
1.233438263E1,1.114143381E0,-1.493205566E1,-1.708176345E-1,1.497453774E1
1.234432463E1,4.851250640E-1,-1.706659109E1,-1.982920636E0,1.718824750E1
1.235426563E1,-9.668151080E-1,-1.911011812E1,-4.259675553E0,1.960296360E1
1.236420763E1,-5.620916128E0,-2.710862264E1,-3.749787238E0,2.793802112E1
1.237414963E1,-1.115864158E1,-3.268941108E1,-2.840037666E0,3.465802494E1
1.238409063E1,-1.075800323E1,-2.191557243E1,-1.503702868E0,2.445992785E1
1.239403263E1,-5.079166920E0,-9.051999123E0,6.875944076E-1,1.040237525E1
1.240397463E1,-2.965271869E0,-3.930183197E0,1.392424361E0,5.116446307E0
1.241391563E1,-3.044936089E0,-1.614824962E0,1.489806229E0,3.754839284E0
1.242385763E1,-2.641160998E0,5.995465958E-1,1.793606504E0,3.248416819E0
1.243379963E1,-2.339142515E0,2.373926286E0,1.362348037E0,3.600431348E0
1.244374063E1,-1.307342841E0,4.431816997E0,9.916094220E-1,4.725826536E0
1.245368263E1,3.968154430E-2,6.138886464E0,1.327908522E0,6.280990581E0
1.246362363E1,1.215973957E0,7.603483007E0,2.008982261E0,7.957861285E0
1.247356562E1,2.154127987E0,8.937518826E0,2.496218462E0,9.526311813E0
1.248350763E1,3.065313928E0,1.028758771E1,2.651561440E0,1.105718719E1
1.249344862E1,3.640125632E0,1.126135962E1,2.491128461E0,1.209439771E1
1.250339063E1,3.482131234E0,1.150691695E1,1.935316699E0,1.217702042E1
1.251333263E1,3.349055915E0,1.139658116E1,8.231873918E-1,1.190696750E1
1.252327363E1,3.587300132E0,1.127300610E1,4.077000350E-1,1.183704389E1
1.253321488E1,3.901868640E0,1.128536244E1,9.796138591E-1,1.198096939E1
1.254315688E1,3.659152180E0,1.135207683E1,1.596184623E0,1.203357172E1
1.255309788E1,2.994092210E0,1.137218657E1,1.755175095E0,1.188998971E1
1.256303988E1,2.565557961E0,1.151161694E1,1.495109653E0,1.188842988E1
1.257298088E1,2.306266545E0,1.163172810E1,1.267589815E0,1.192571792E1
1.258292288E1,2.075737583E0,1.170663327E1,9.902808615E-1,1.193040675E1
1.259286488E1,2.058236867E0,1.196369325E1,4.937301920E-1,1.214948824E1
1.260280588E1,2.364913241E0,1.233839335E1,-5.519566923E-1,1.257511118E1
1.261274788E1,2.370097821E0,1.258933830E1,-1.548854921E0,1.290378837E1
1.262268988E1,1.787638251E0,1.227340506E1,-1.913426478E0,1.254963438E1
1.263263088E1,1.479377427E0,1.201435001E1,-1.873088876E0,1.224914796E1
1.264257288E1,1.477317161E0,1.217724993E1,-1.684488689E0,1.238165514E1
1.265251388E1,1.518313159E0,1.221607077E1,-1.575545121E0,1.241047954E1
1.266245588E1,1.767810781E0,1.210375511E1,-1.570524702E0,1.233258248E1
1.267239788E1,2.129760447E0,1.186471041E1,-1.667758636E0,1.216916807E1
1.268233888E1,2.270831541E0,1.132314481E1,-1.533028847E0,1.164991252E1
1.269228088E1,2.118416118E0,1.067678423E1,-9.792882422E-1,1.092887981E1
1.270222287E1,1.169369967E0,9.885417387E0,1.298953695E0,1.003873417E1
1.271216388E1,5.990161803E-1,9.366767020E0,1.652824262E0,9.530318612E0
1.272210588E1,1.067687033E0,9.097975194E0,5.466648160E-1,9.176706962E0
1.273204788E1,1.210303839E0,8.848578583E0,-1.744588418E-1,8.932671169E0
1.274198888E1,1.161154044E0,8.495412605E0,-1.255256137E0,8.665793790E0
1.275193088E1,1.293647639E0,8.246658602E0,-3.434959699E0,9.026618993E0
1.276187188E1,1.979549131E0,7.735173998E0,-3.052702653E0,8.548129914E0
1.277181388E1,3.549816264E0,5.244556584E0,2.845591059E0,6.942907009E0
1.278175588E1,5.983382102E0,9.652805793E-1,2.280078328E0,6.475444785E0
1.279169688E1,1.563724039E1,-1.472516714E1,-5.516440417E0,2.217622487E1
1.280163888E1,2.782420957E1,-4.070553210E1,-5.903229055E0,4.965858531E1
1.281158088E1,2.047939803E1,-6.696495192E1,1.010173162E1,7.075136402E1
1.282152188E1,-1.862719424E1,-6.657939119E1,2.650693480E1,7.404326633E1
1.283146388E1,-2.791519926E1,-3.354716020E1,4.606669210E0,4.388498272E1
1.284140588E1,-1.430809226E1,-9.827822313E0,-8.154498298E0,1.917820216E1
1.285134688E1,-4.444022475E0,-2.707863110E0,-1.087511243E1,1.205611582E1
1.286128888E1,1.238485883E0,2.423635220E0,-9.552263505E0,9.932451512E0
1.287122988E1,2.141746508E0,5.660439212E0,-5.286301610E0,8.035709981E0
1.288117188E1,1.742630332E0,7.967851081E0,-8.673919035E-1,8.202181419E0
1.289111388E1,2.351278265E0,8.567923341E0,7.436474249E-1,8.915763083E0
1.290105488E1,3.291821614E0,6.926050329E0,-1.280274910E0,7.774661828E0
1.291099687E1,3.543039925E0,4.086385716E0,-2.003152587E0,5.767521167E0
1.292093888E1,2.766499574E0,1.194869748E0,-1.685480962E0,3.452836468E0
1.293087987E1,1.144369977E0,2.092601538E-2,-1.090690491E0,1.581020648E0
1.294082188E1,-1.107341315E0,-2.625160092E-1,-9.153710854E-1,1.460487476E0
1.295076287E1,-1.582818034E0,3.141416609E-2,-2.300714175E-1,1.599760181E0
1.296070488E1,-1.424218596E0,1.006325110E0,2.050172679E-1,1.755881805E0
1.297064688E1,-1.310166754E0,2.118909330E0,-2.387773369E-1,2.502664238E0
1.298058788E1,-1.153505813E0,2.996402737E0,-3.939380282E-1,3.234840367E0
1.299052988E1,-1.019876909E0,3.603348985E0,-4.032122970E-2,3.745116636E0
1.300047188E1,-1.091177857E0,4.311882418E0,4.311678350E-2,4.448017329E0
1.301041288E1,-1.439367708E0,4.232600021E0,2.308439444E-1,4.476602647E0
1.302035488E1,-1.999059244E0,3.275327203E0,8.099516344E-1,3.921737854E0
1.303029688E1,-2.196219315E0,2.321199018E0,1.414212255E0,3.494472845E0
1.304023788E1,-2.252867287E0,1.994150798E0,1.987089116E0,3.605630538E0
1.305017988E1,-2.373596356E0,2.150887168E0,2.407823764E0,4.007229785E0
1.306012088E1,-1.838791302E0,1.984764263E0,2.745702782E0,3.854779682E0
1.307006288E1,-5.566843124E-1,1.310270981E0,3.106229235E0,3.416923693E0
1.308000488E1,8.835927840E-1,3.636131984E-1,3.451499133E0,3.581312194E0
1.308994588E1,1.953147637E0,-5.877042300E-1,3.660616615E0,4.190500681E0
1.309988788E1,2.576609199E0,-1.340108153E0,3.597654966E0,4.623626940E0
1.310982988E1,2.857587499E0,-1.708995540E0,3.231471916E0,4.639922717E0
1.311977088E1,2.809868957E0,-1.759017885E0,2.790491284E0,4.333168480E0
1.312971288E1,2.243655729E0,-1.662057016E0,2.330634670E0,3.637070596E0
1.313965387E1,1.477381334E0,-1.554351304E0,1.753314511E0,2.769977501E0
1.314959588E1,1.059177361E0,-1.638403274E0,7.560742199E-1,2.092336062E0
1.315953788E1,3.791552438E-1,-1.625462217E0,-1.045201584E-1,1.672366760E0
1.316947888E1,-8.272082296E-1,-1.485433096E0,-6.003944421E-1,1.803124628E0
1.317942088E1,-2.121667462E0,-1.250152248E0,-7.477033460E-1,2.573599378E0
1.318936288E1,-2.864267358E0,-8.910098308E-1,-4.906971681E-1,3.039524589E0
1.319930388E1,-3.327065122E0,-5.306283885E-1,-5.443876544E-2,3.369553737E0
1.320924588E1,-3.215919200E0,2.765528351E-1,4.411338294E-1,3.257793245E0
1.321918788E1,-2.683143421E0,1.128450056E0,5.569986733E-1,2.963596746E0
1.322912888E1,-1.931732648E0,1.718599591E0,2.030135733E-1,2.593528502E0
1.323907088E1,-1.208472710E0,1.876660355E0,-2.736800981E-1,2.248813282E0
1.324901188E1,-3.410683814E-1,1.757059067E0,-6.891329563E-1,1.917938591E0
1.325895388E1,5.527108370E-1,1.667828218E0,-9.065441287E-1,1.977109630E0
1.326889588E1,1.248429512E0,1.527845875E0,-8.020847905E-1,2.129842547E0
1.327883688E1,1.683299219E0,1.214949086E0,-4.506180497E-1,2.124300866E0
1.328877888E1,1.830882650E0,7.341144168E-1,-3.584990043E-2,1.972901536E0
1.329872087E1,1.667103748E0,2.686286885E-1,4.599624485E-1,1.750131918E0
1.330866188E1,1.270531110E0,-2.532019794E-2,7.875895429E-1,1.495054415E0
1.331860387E1,7.721914852E-1,-2.732801485E-1,8.314875144E-1,1.167190308E0
1.332854488E1,2.880484611E-1,-5.372936296E-1,4.758124959E-1,7.733394414E-1
1.333848687E1,-9.256142378E-2,-7.008075070E-1,-7.594714522E-2,7.109618470E-1
1.334842888E1,-2.212295504E-1,-7.845910907E-1,-5.240333505E-1,9.690906284E-1
1.335836988E1,-1.840120228E-1,-8.655960774E-1,-8.244018584E-1,1.209444260E0
1.336831188E1,-6.489620000E-2,-8.287621272E-1,-1.048461900E0,1.338032337E0
1.337825388E1,1.124298240E-1,-6.296971786E-1,-1.039030341E0,1.220140587E0
1.338819488E1,1.764862177E-1,-3.262167460E-1,-7.649275623E-1,8.501052440E-1
1.339813688E1,1.819206199E-1,-1.999864697E-2,-3.500318706E-1,3.949903395E-1
1.340807888E1,2.293229739E-1,2.630861127E-1,2.356766681E-1,4.211256594E-1
1.341801988E1,3.124727194E-1,5.335315311E-1,1.149777190E0,1.305481782E0
1.342796188E1,3.761369111E-1,5.813313496E-1,1.668541578E0,1.806503837E0
1.343790288E1,5.168289596E-1,3.804818308E-1,1.193493898E0,1.355103790E0
1.344784488E1,6.618821539E-1,1.849830991E-1,5.483167640E-1,8.791803037E-1
1.345778688E1,6.649637827E-1,9.641649306E-2,5.782767642E-1,8.864970324E-1
1.346772788E1,3.122784457E-1,1.402963382E-1,1.314843503E0,1.358681099E0
1.347766988E1,-3.544890569E-1,2.841132849E-1,2.161250188E0,2.208480298E0
1.348761188E1,-1.072738370E0,3.712321204E-1,2.725889491E0,2.952804500E0
1.349755288E1,-1.524022088E0,3.646768069E-1,2.588939515E0,3.026258467E0
1.350749488E1,-1.608393610E0,3.760706913E-1,1.792614816E0,2.437586316E0
1.351743588E1,-1.612658715E0,3.929720682E-1,9.802979102E-1,1.927713456E0
1.352737787E1,-1.354793142E0,2.397270709E-1,5.417033804E-1,1.478639942E0
1.353732088E1,-1.105837996E0,1.277148843E-2,4.689852870E-1,1.201244348E0
1.354726188E1,-6.000281140E-1,-8.607101440E-4,-4.043185902E-1,7.235385275E-1
1.355720388E1,-4.157200760E-1,7.516595721E-2,-2.271784784E0,2.310731314E0
1.356714588E1,-2.827219400E-1,1.942982984E-1,-2.762065630E0,2.783287637E0
1.357708688E1,3.421197107E-1,2.499368942E-1,-3.109159275E0,3.137895113E0
1.358702888E1,1.440294492E0,4.253498554E-1,-2.861978173E0,3.232072058E0
1.359697088E1,2.044940006E0,7.001070106E-1,-1.435189142E0,2.594551469E0
1.360691188E1,2.162665068E0,9.820714438E-1,-7.767397419E-2,2.376471705E0
1.361685388E1,2.032073500E0,1.272889146E0,1.164246125E0,2.665527814E0
1.362679488E1,2.083278737E0,1.239704443E0,2.343830082E0,3.372010803E0
1.363673688E1,2.472576707E0,1.715671890E0,2.486821402E0,3.904029494E0
1.364667888E1,1.484094522E0,1.583326596E0,9.085842222E-2,2.172030137E0
1.365661988E1,1.041419513E0,1.337383350E0,-8.514861614E-1,1.896886267E0
1.366656188E1,8.843364036E-1,1.092266316E0,-1.346536582E0,1.946344611E0
1.367650388E1,3.325054264E-1,8.990573537E-1,-1.660280632E0,1.917132171E0
1.368644487E1,-3.986767580E-1,5.515310150E-1,-1.493620075E0,1.641350221E0
1.369638688E1,-1.013904124E0,1.183868212E-1,-9.113087323E-1,1.368393444E0
1.370632888E1,-1.712321728E0,-4.131326830E-1,-3.932533193E-1,1.804819240E0
1.371626988E1,-2.158853122E0,-8.661381143E-1,-1.414961869E-1,2.330421251E0
1.372621188E1,-2.070558412E0,-1.163156789E0,-7.769750923E-2,2.376169766E0
1.373615288E1,-1.758286837E0,-1.107041060E0,-2.027446014E-1,2.087634518E0
1.374609488E1,-1.757344119E0,-5.073617327E-1,3.190346110E-1,1.856732981E0
1.375603688E1,-1.992679200E0,3.905548292E-1,1.723665619E-1,2.037894428E0
1.376597788E1,-2.022420624E0,1.387315648E0,-5.711656728E-1,2.518146166E0
1.377591988E1,-1.348611174E0,2.107782664E0,-5.794608253E-1,2.568516051E0
1.378586188E1,-6.962146653E-1,2.456670819E0,-1.170089248E-1,2.556098093E0
1.379580288E1,-2.391686618E-2,2.374946040E0,4.531925422E-1,2.417917325E0
1.380574488E1,7.998362437E-1,2.044125196E0,7.549550629E-1,2.321237382E0
1.381568588E1,8.893318261E-1,1.693392829E0,7.908370864E-1,2.069761742E0
1.382562788E1,3.469372317E-2,1.449272161E0,1.117590022E0,1.830464670E0
1.383556988E1,-6.666856416E-1,1.408352176E0,1.060384957E0,1.884765729E0
1.384551088E1,-5.374686076E-1,1.368198177E0,2.091818303E0,2.556666300E0
1.385545288E1,-2.455415422E-1,1.167363861E0,3.008571670E0,3.236438247E0
1.386539487E1,1.079322919E-1,1.083488476E0,3.466190555E0,3.633190556E0
1.387533588E1,4.662658931E-1,8.405004126E-1,3.363029006E0,3.497686224E0
1.388527788E1,3.343037376E-1,2.422109681E-1,4.412601292E0,4.431870407E0
1.389521888E1,1.709641072E-1,-1.192253703E0,4.846374646E0,4.993800640E0
1.390516088E1,-2.200950444E-2,-3.264604579E0,3.295478463E0,4.638782790E0
1.391510288E1,3.598994856E-1,-5.593131328E0,2.351125945E0,6.077864667E0
1.392504388E1,1.612208333E0,-8.125514819E0,2.218580384E0,8.575855975E0
1.393498588E1,2.555392284E0,-1.060475589E1,1.623417445E0,1.102843422E1
1.394492788E1,2.725135785E0,-1.298977201E1,1.432681271E0,1.334964859E1
1.395486888E1,1.682639215E0,-1.423539149E1,3.699764308E-1,1.433926526E1
1.396481088E1,3.200148967E-1,-1.372882264E1,-3.615672576E-1,1.373731093E1
1.397475288E1,-3.719605373E-1,-1.288694287E1,-9.794884363E-1,1.292946437E1
1.398469388E1,-7.496443292E-1,-1.186366376E1,-2.424950259E0,1.213214194E1
1.399463588E1,-1.203694219E0,-1.083655823E1,-2.948601457E0,1.129487161E1
1.400457688E1,-1.917386797E0,-1.097656747E1,-2.276062022E0,1.137285645E1
1.401451888E1,-3.270001559E0,-1.201998556E1,-1.331896031E0,1.252784539E1
1.402446088E1,-4.886183368E0,-1.335836177E1,-7.069811435E-1,1.424150411E1
1.403440188E1,-7.638885559E0,-1.600876078E1,-8.670001401E-1,1.775907328E1
1.404434388E1,-1.002048807E1,-1.619830763E1,-3.812501550E-2,1.904722565E1
1.405428587E1,-7.575332172E0,-9.077136303E0,1.293055608E0,1.189336175E1
1.406422688E1,-3.536679617E0,-1.176081474E0,2.121462809E0,4.288574914E0
1.407416887E1,-1.769739339E0,2.966852079E0,2.257088977E0,4.126577182E0
1.408410988E1,-1.071454321E0,5.110278200E0,2.338627814E0,5.721200721E0
1.409405187E1,-2.202051913E-1,6.602215739E0,3.285645785E0,7.377886636E0
1.410399388E1,5.745535496E-1,7.638807791E0,3.815113501E0,8.557837769E0
1.411393488E1,1.235457318E0,8.325790726E0,3.770065382E0,9.222718633E0
1.412387688E1,1.543215281E0,9.308337548E0,3.187134819E0,9.959141011E0
1.413381888E1,2.061954526E0,1.037929193E1,1.779004837E0,1.073062047E1
1.414375988E1,2.759648976E0,1.122504022E1,4.392223015E-1,1.156763185E1
1.415370188E1,2.905265695E0,1.132784480E1,1.215706301E-1,1.169510222E1
1.416364288E1,3.522460065E0,1.129090092E1,-1.235488893E-1,1.182824724E1
1.417358488E1,4.261235005E0,1.157680170E1,7.631638958E-1,1.235972817E1
1.418352688E1,5.925316912E0,1.214495342E1,7.390669354E-1,1.353349527E1
1.419346788E1,6.042618490E0,1.251557685E1,3.120647299E-1,1.390144908E1
1.420340988E1,4.936154550E0,1.264483423E1,7.209103806E-1,1.359327651E1
1.421335188E1,3.802211035E0,1.257245856E1,1.530190024E0,1.322365322E1
1.422329288E1,3.111063128E0,1.259018498E1,2.179941398E0,1.315080287E1
1.423323488E1,2.783944157E0,1.267588996E1,2.400711211E0,1.319817964E1
1.424317588E1,1.843386628E0,1.274016840E1,1.115082736E0,1.292104387E1
1.425311788E1,9.861231257E-1,1.278489609E1,-9.739584321E-1,1.285980567E1
1.426305988E1,1.349326873E-1,1.268162725E1,-2.117753921E0,1.285794533E1
1.427300088E1,-6.362893295E-1,1.223540868E1,-2.397941970E0,1.248439888E1
1.428294288E1,-9.157865301E-1,1.167871867E1,-2.477569352E0,1.197369970E1
1.429288488E1,-9.295466365E-1,1.122517354E1,-2.769864061E0,1.159916914E1
1.430282587E1,-8.718324253E-1,1.070152263E1,-2.954602162E0,1.113608335E1
1.431276788E1,-7.780749536E-1,1.016329813E1,-3.071656988E0,1.064580227E1
1.432270988E1,-7.212332931E-1,9.636725950E0,-3.161536878E0,1.016769295E1
1.433265088E1,-7.229719627E-1,9.232362337E0,-2.885331953E0,9.699708410E0
1.434259288E1,-8.338652846E-1,8.911380603E0,-2.894364147E0,9.406666751E0
1.435253388E1,-5.406212801E-1,8.686576211E0,-3.710952078E0,9.461503208E0
1.436247588E1,4.750425090E-2,8.667543524E0,-4.172500584E0,9.619684429E0
1.437241788E1,3.231554362E-1,8.826943885E0,-3.494195502E0,9.498882565E0
1.438235888E1,4.948583391E-1,8.870406824E0,-1.825646907E0,9.069839504E0
1.439230088E1,1.000119752E0,8.392405715E0,1.824774941E0,8.646532067E0
1.440224288E1,9.101091760E-1,8.212323752E0,-4.399481602E-1,8.274304473E0
1.441218388E1,1.039883742E0,7.850169434E0,-4.427804053E0,9.072594285E0
1.442212588E1,2.464774475E0,5.529820016E0,-5.690456479E0,8.308749458E0
1.443206688E1,6.759504671E0,-1.139049304E0,-6.026545079E0,9.127298740E0
1.444200888E1,2.298570411E1,-2.759841115E1,1.570730875E1,3.920120457E1
1.445195088E1,2.772622193E1,-6.800648603E1,4.232290001E1,8.476351450E1
1.446189188E1,-9.636189176E0,-6.738982464E1,2.733227630E1,7.335733048E1
1.447183388E1,-2.082082631E1,-3.453859537E1,-1.107039540E1,4.182074883E1
1.448177587E1,-7.862443324E0,-8.210283659E0,-1.802642207E1,2.131146793E1
1.449171688E1,-3.297970838E0,-1.864730866E0,-9.580294472E0,1.030222670E1
1.450165888E1,-3.414989119E0,4.221885583E0,2.155752929E0,5.842408685E0
1.451159988E1,2.376175125E0,7.914595810E0,1.928327522E0,8.485604404E0
1.452154188E1,3.682806213E0,8.479073145E0,-2.557459567E0,9.591576640E0
1.453148287E1,3.536649211E0,7.611545148E0,-2.654773901E0,8.802916087E0
1.454142388E1,4.742197144E0,5.241293837E0,-1.894728252E0,7.317758536E0
1.455136587E1,5.406317466E0,1.858110064E0,-4.112185970E-1,5.731486917E0
1.456130788E1,4.288031625E0,-1.520702332E0,1.893456190E0,4.927973939E0
1.457124887E1,-5.454417247E-1,-4.463522939E0,2.252836881E0,5.029494777E0
1.458119088E1,-3.527470544E0,-4.204376096E0,5.084686106E-1,5.511657384E0
1.459113288E1,-2.876001843E0,-1.098563767E0,-1.368968840E0,3.369318126E0
1.460107388E1,-2.349638706E0,7.824118334E-1,-2.115467659E0,3.257019150E0
1.461101588E1,-2.795233961E0,1.880573897E0,-2.402740926E0,4.138001333E0
1.462095688E1,-3.329858921E0,2.670013499E0,-2.129885870E0,4.770046786E0
1.463089888E1,-2.999854349E0,3.214514991E0,-1.129876192E0,4.539697451E0
1.464084088E1,-1.963941743E0,3.276859174E0,2.016048329E-1,3.825639518E0
1.465078188E1,-1.501851201E0,2.874977703E0,1.186007123E0,3.453645425E0
1.466072388E1,-1.802330842E0,2.430045522E0,1.392925467E0,3.330729509E0
1.467066588E1,-2.139747053E0,2.026765983E0,9.811160088E-1,3.106265671E0
1.468060688E1,-1.361186488E0,2.097176399E0,9.743041487E-1,2.683327427E0
1.469054888E1,-3.698594865E-1,2.387215837E0,1.358950805E0,2.771703950E0
1.470048988E1,2.366535551E-1,2.636269217E0,1.528091312E0,3.056302234E0
1.471043188E1,5.599192113E-1,3.038447726E0,1.738404111E0,3.545098442E0
1.472037388E1,2.717026428E-1,3.001305628E0,2.019255819E0,3.627540745E0
1.473031488E1,3.000405888E-1,2.316000259E0,1.906084714E0,3.014471843E0
1.474025688E1,5.628944939E-1,1.710939154E0,2.065103837E0,2.740222045E0
1.475019888E1,8.649703523E-1,1.227957387E0,2.594739368E0,2.998120318E0
1.476013988E1,1.217649623E0,6.599167585E-1,3.323871372E0,3.600872343E0
1.477008188E1,1.888153058E0,1.362980121E-1,3.840998540E0,4.282168715E0
1.478002287E1,2.205052558E0,-4.425745833E-1,3.153533210E0,3.873357813E0
1.478996488E1,2.213992658E0,-6.620796436E-1,1.652033719E0,2.840656324E0
1.479990688E1,1.894476529E0,-7.532044065E-1,3.618417844E-2,2.039035922E0
1.480984788E1,1.382491111E0,-1.401974033E0,-1.196776598E0,2.304145630E0
1.481978988E1,1.342268114E0,-2.025975439E0,-2.117900101E0,3.223625445E0
1.482973188E1,1.139572045E0,-1.739507480E0,-2.504330889E0,3.255178017E0
1.483967288E1,3.400390704E-2,-8.426270449E-1,-1.655570846E0,1.857980470E0
1.484961488E1,-1.942946146E0,-2.677223700E-1,-1.932697731E0,2.753549621E0
1.485955588E1,-3.610158652E0,-2.385816014E-1,-1.753133101E0,4.020403256E0
1.486949788E1,-4.375801840E0,-1.130863202E-1,-4.496426976E-1,4.400296447E0
1.487943988E1,-4.828714593E0,1.243118048E-1,1.338797207E0,5.012416185E0
1.488938088E1,-4.421532622E0,2.816790891E-1,2.736343728E0,5.207386181E0
1.489932288E1,-2.954105441E0,3.610474402E-1,2.352906715E0,3.793845571E0
1.490926488E1,-1.389866496E0,4.625130039E-1,8.479215525E-1,1.692518276E0
1.491920588E1,3.865594268E-2,5.381707120E-1,-1.433778208E-1,5.582823628E-1
1.492914788E1,1.145788804E0,5.945846486E-1,-6.227730520E-1,1.433251256E0
1.493908888E1,1.658933141E0,5.782019198E-1,-1.299044327E0,2.184923978E0
1.494903088E1,1.570815016E0,4.561588347E-1,-1.583067564E0,2.276322387E0
1.495897287E1,8.230768794E-1,3.755894655E-1,-1.493025706E0,1.745751630E0
1.496891388E1,-4.361467391E-2,3.346993017E-1,-8.808064395E-1,9.432634024E-1
1.497885588E1,-6.257687268E-1,1.503436089E-1,3.556703407E-1,7.353170006E-1
1.498879788E1,-9.408965206E-1,-2.556344211E-1,1.280095255E0,1.609123700E0
1.499873888E1,-7.698683864E-1,-6.614943373E-1,1.752313613E0,2.025061750E0
1.500868088E1,-1.795357965E-1,-6.190651864E-1,1.326042529E0,1.474402793E0
1.501862288E1,3.721709274E-1,-2.429272521E-1,7.325068711E-1,8.567912028E-1
1.502856388E1,9.492673945E-1,1.756702387E-1,4.579192851E-1,1.068484296E0
1.503850588E1,9.474596547E-1,6.720427144E-1,8.883996338E-2,1.164995170E0
1.504844688E1,9.288823197E-1,1.111068038E0,-4.508592108E-1,1.516762531E0
1.505838888E1,1.055462990E0,1.637607468E0,-1.185741952E0,2.280733286E0
1.506833088E1,1.024477498E0,2.305065966E0,-9.535089648E-1,2.696676213E0
1.507827188E1,2.929327134E-1,2.787574108E0,-2.573711903E-1,2.814714713E0
1.508821388E1,-7.936028194E-1,2.811510270E0,-4.833407861E-1,2.961083206E0
1.509815588E1,-1.357836033E0,2.383123956E0,1.942684776E-1,2.749679749E0
1.510809688E1,-1.250591082E0,1.816077354E0,1.615688011E0,2.733598866E0
1.511803888E1,-7.596743506E-1,1.283232286E0,2.726581802E0,3.107738493E0
1.512797988E1,-1.371961445E-1,8.115151799E-1,2.793941141E0,2.912642575E0
1.513792188E1,1.781069197E-2,2.016453248E-1,1.655128358E0,1.667461525E0
1.514786387E1,-3.062325709E-2,-3.260623795E-1,2.838451901E-1,4.333849918E-1
1.515780488E1,3.027922153E-2,-4.278711748E-1,-4.414162499E-1,6.154988864E-1
1.516774687E1,5.749698713E-1,-1.861712533E-1,-8.045394516E-1,1.006247394E0
1.517768888E1,1.183330268E0,4.520634449E-1,-1.068281037E0,1.657062538E0
1.518762987E1,1.419182974E0,1.111746315E0,-1.096682133E0,2.110159208E0
1.519757188E1,1.553578302E0,1.348683679E0,-6.818774387E-1,2.167373998E0
1.520751288E1,1.508404468E0,1.074919966E0,-5.966545630E-1,1.945953144E0
1.521745488E1,1.089703262E0,6.663217986E-1,-7.696061388E-1,1.491218142E0
1.522739688E1,1.798391573E-1,1.676624769E-1,-4.037993574E-1,4.727650047E-1
1.523733788E1,-8.445732906E-1,-6.754984188E-1,2.417952311E-1,1.108181885E0
1.524727988E1,-1.868497058E0,-1.491962682E0,-2.727626699E-1,2.406581262E0
1.525722188E1,-2.577530428E0,-1.826325769E0,-7.206982729E-1,3.240144274E0
1.526716288E1,-2.564807471E0,-1.967625489E0,-3.858425581E-1,3.255558617E0
1.527710488E1,-2.192020430E0,-1.746793696E0,-2.157078785E-1,2.811186879E0
1.528704588E1,-2.025685417E0,-1.239492774E0,-2.328074759E-1,2.386198455E0
1.529698788E1,-1.753992349E0,-4.213304794E-1,-2.901771399E-1,1.827077258E0
1.530692988E1,-1.420510145E0,9.199418539E-1,4.225081086E-2,1.692904964E0
1.531687088E1,-1.013287682E0,2.050112160E0,9.317798343E-1,2.469397792E0
1.532681288E1,-2.038596654E-1,2.491458828E0,1.781818517E0,3.069821344E0
1.533675488E1,3.438558953E-1,2.400834002E0,3.651168099E0,4.383294340E0
1.534669588E1,3.968182205E-1,1.707533151E0,4.367243271E0,4.705948146E0
1.535663788E1,4.603470491E-1,4.242026317E-1,3.996326315E0,4.045057638E0
1.536657888E1,8.591420670E-1,-1.668091342E0,4.099721460E0,4.508699355E0
1.537652088E1,1.950871608E0,-4.223088355E0,3.677604530E0,5.930021110E0
1.538646288E1,3.496372420E0,-6.759366676E0,2.336109126E0,7.960594438E0
1.539640387E1,4.742959621E0,-9.254042643E0,1.800261513E0,1.055338395E1
1.540634588E1,5.127665480E0,-1.150103348E1,3.962950408E-1,1.259856238E1
1.541628788E1,4.286851072E0,-1.223225586E1,-9.650630629E-1,1.299755832E1
1.542622888E1,2.723978037E0,-1.179093609E1,-8.605171859E-1,1.213205342E1
1.543617088E1,1.428575064E0,-1.185875678E1,-2.864925170E-1,1.194792940E1
1.544611188E1,1.552164591E-1,-1.215652156E1,-1.257565641E0,1.222238028E1
1.545605388E1,-1.001651138E0,-1.214719525E1,-2.749841733E0,1.249477038E1
1.546599588E1,-1.860919651E0,-1.223582032E1,-2.067905822E0,1.254808971E1
1.547593688E1,-2.739561743E0,-1.298751498E1,-3.324387681E-1,1.327747188E1
1.548587888E1,-3.563724158E0,-1.382679859E1,6.123758255E-1,1.429179811E1
1.549582088E1,-4.818114176E0,-1.335962243E1,1.180699605E0,1.425088724E1
1.550576188E1,-6.007717044E0,-1.159697225E1,1.665122126E0,1.316643692E1
1.551570388E1,-6.097926133E0,-8.560229575E0,1.959086215E0,1.069112961E1
1.552564488E1,-4.900651426E0,-3.776041821E0,1.383293933E0,6.339430443E0
1.553558725E1,-3.475685556E0,1.159932634E0,2.654308462E-1,3.673729350E0
1.554552925E1,-2.057116540E0,4.890507091E0,-4.919730306E-1,5.328304189E0
1.555547025E1,-1.190726703E0,6.673193920E0,-8.047750944E-1,6.826200270E0
1.556541225E1,-6.208135039E-1,7.646386367E0,-7.509210688E-1,7.708210968E0
1.557535425E1,-7.782859650E-2,8.595446770E0,-1.770836569E-1,8.597622991E0
1.558529525E1,8.520242514E-1,9.785162782E0,1.478535721E0,9.932845709E0
1.559523725E1,1.934118458E0,1.093287824E1,3.420123559E0,1.161748192E1
1.560517825E1,2.069079651E0,1.176294898E1,3.383265050E0,1.241348225E1
1.561512025E1,1.768640501E0,1.213352095E1,2.885327860E0,1.259664783E1
1.562506225E1,1.611261669E0,1.214391145E1,3.039285632E0,1.262172756E1
1.563500325E1,1.638377547E0,1.218429232E1,2.756918326E0,1.259928010E1
1.564494525E1,1.849727934E0,1.227716482E1,2.054440269E0,1.258455379E1
1.565488725E1,2.137076045E0,1.227203330E1,1.600921453E0,1.255917373E1
1.566482825E1,2.629969719E0,1.244880165E1,1.477112508E0,1.280903058E1
1.567477025E1,3.006149461E0,1.258714326E1,9.995445322E-1,1.297968410E1
1.568471125E1,2.584223735E0,1.256954665E1,1.274084902E-1,1.283308023E1
1.569465325E1,1.579573999E0,1.225682352E1,-6.608465389E-1,1.237584321E1
1.570459525E1,7.134545960E-1,1.195314721E1,-1.070418268E0,1.202216873E1
1.571453625E1,1.286584787E-1,1.172583085E1,-1.383130065E0,1.180782414E1
1.572447825E1,-2.001522383E-1,1.149339234E1,-1.708147693E0,1.162135521E1
1.573442025E1,-2.976462270E-1,1.134674534E1,-2.060601481E0,1.153617361E1
1.574436125E1,-3.674501413E-1,1.126619059E1,-2.132816933E0,1.147218279E1
1.575430325E1,-4.886627756E-1,1.116283988E1,-2.171300967E0,1.138254512E1
1.576424425E1,-6.737708589E-1,1.076622207E1,-2.202093574E0,1.100975572E1
1.577418625E1,-8.985670647E-1,9.819312276E0,-2.236692719E0,1.011084124E1
1.578412825E1,-8.933677205E-1,9.189052010E0,-2.327022407E0,9.521124724E0
1.579406925E1,-1.026621380E0,8.759178164E0,-1.469718120E0,8.940761988E0
1.580401125E1,-1.449131243E0,8.303758417E0,-9.509970009E-1,8.482734259E0
1.581395325E1,-9.069776997E-1,8.415509233E0,-3.706279276E0,9.240125014E0
1.582389425E1,-2.193793817E-1,8.584216023E0,-3.892525958E0,9.428077767E0
1.583383625E1,4.262745560E-1,8.380412491E0,-1.486557077E0,8.521905624E0
1.584377725E1,1.909096907E0,5.770741088E0,9.155966710E0,1.098989673E1
1.585371925E1,1.311048368E0,5.083203253E0,5.627129379E-1,5.279625837E0
1.586366125E1,3.740611203E0,1.510691314E0,-4.673760163E0,6.174009594E0
1.587360225E1,1.031815929E1,-1.133702376E1,-4.424678716E0,1.595525934E1
1.588354425E1,1.802675653E1,-2.822745227E1,-4.574849540E0,3.380358355E1
1.589348625E1,2.445245944E1,-4.098910335E1,3.861391582E0,4.788465005E1
1.590342725E1,1.672990841E1,-4.803857670E1,2.794421315E1,5.803855387E1
1.591336925E1,-1.198472685E1,-4.345681078E1,2.846872944E1,5.331600733E1
1.592331025E1,-2.296284149E1,-2.667209993E1,-3.358162369E0,3.535491845E1
1.593325225E1,-1.115882167E1,-1.234678411E1,-1.705303725E1,2.382789244E1
1.594319425E1,-2.963592841E0,-4.250947414E0,-1.547962870E1,1.632398055E1
1.595313525E1,-8.384404385E-1,3.584167778E-2,-9.622511369E0,9.659036807E0
1.596307725E1,-3.943365160E-1,3.977086637E0,-9.540901780E-1,4.108893704E0
1.597301925E1,1.801424816E0,6.556464200E0,1.484562446E0,6.959617793E0
1.598296025E1,3.604541232E0,5.884023290E0,-1.012492168E-1,6.901065061E0
1.599290225E1,4.553214842E0,3.372886242E0,-1.365682704E0,5.828654755E0
1.600284325E1,4.121271374E0,7.244010222E-1,-1.031409372E0,4.309691389E0
1.601278525E1,3.009053189E0,-8.796410894E-1,1.105099200E0,3.324065851E0
1.602272725E1,1.806356066E0,-1.580922806E0,2.495995098E0,3.462980029E0
1.603266825E1,2.087403363E-1,-1.824989680E0,2.516507131E0,3.115600745E0
1.604261025E1,-1.135782757E0,-8.766753817E-1,1.633673462E0,2.174270262E0
1.605255225E1,-1.960358862E0,4.200411683E-1,2.743203682E-1,2.023534807E0
1.606249325E1,-2.358988988E0,1.337178698E0,-9.893430412E-1,2.886464199E0
1.607243525E1,-2.117984301E0,1.988032272E0,-1.619347783E0,3.325720532E0
1.608237625E1,-2.189672627E0,2.696240015E0,-1.362637036E0,3.731106555E0
1.609231825E1,-2.128161087E0,3.277689478E0,-1.677965243E-1,3.911581982E0
1.610226025E1,-1.258038096E0,3.566785176E0,1.015280705E0,3.916045359E0
1.611220125E1,-3.546836961E-1,3.213807478E0,1.651315535E0,3.630592517E0
1.612214325E1,-5.485805100E-1,2.762062706E0,2.102553499E0,3.514350891E0
1.613208525E1,-9.415886848E-1,2.479058053E0,2.632653299E0,3.736734066E0
1.614202625E1,-1.035327372E0,2.251388526E0,3.245774791E0,4.083589971E0
1.615196825E1,-1.277374253E0,1.982386200E0,3.583603522E0,4.289959701E0
1.616190925E1,-1.897394874E0,1.686800094E0,3.282040392E0,4.149360312E0
1.617185125E1,-1.838010260E0,1.523786153E0,2.619872455E0,3.544564520E0
1.618179325E1,-1.206102834E0,1.073585047E0,2.108663839E0,2.655886309E0
1.619173425E1,-7.060142333E-1,6.819040436E-1,1.603310479E0,1.879907900E0
1.620167625E1,-1.336620142E-1,3.656509531E-1,1.162472519E0,1.225931691E0
1.621161725E1,3.213404605E-1,-1.074554515E-1,7.287478423E-1,8.036664627E-1
1.622155925E1,4.716866275E-1,-5.456802911E-1,2.170829974E-1,7.532464951E-1
1.623150125E1,5.865543019E-1,-8.645283759E-1,3.269806847E-2,1.045238932E0
1.624144225E1,8.749855363E-1,-9.886875683E-1,-9.065815508E-2,1.323375116E0
1.625138425E1,1.206776433E0,-9.692332971E-1,-4.625989580E-1,1.615462887E0
1.626132625E1,1.396430580E0,-9.509168941E-1,-5.879666238E-1,1.788844894E0
1.627126725E1,1.497901699E0,-8.057229280E-1,-2.043550707E-1,1.713084917E0
1.628120925E1,9.191032901E-1,-6.813865650E-1,2.147908889E-1,1.164119253E0
1.629115025E1,3.918248445E-2,-8.747498935E-1,4.474248487E-1,9.833166522E-1
1.630109225E1,-5.653470355E-1,-1.036688531E0,3.791613834E-1,1.240203103E0
