"Time (s)","Linear Acceleration x (m/s^2)","Linear Acceleration y (m/s^2)","Linear Acceleration z (m/s^2)","Absolute acceleration (m/s^2)"
2.912008335E-2,-2.254022697E-1,1.333399057E-2,-6.648336822E-1,7.021309019E-1
3.906208335E-2,-5.117994770E-2,8.941796064E-2,-4.448017877E-1,4.565781303E-1
4.900408335E-2,5.350947842E-2,7.615442902E-2,-2.138759458E-1,2.332502552E-1
5.894508335E-2,4.070846155E-2,7.381408095E-2,-4.031538248E-2,9.343996711E-2
6.888708335E-2,-5.476955339E-2,5.996495068E-2,7.568577468E-2,1.110127730E-1
7.882908333E-2,-2.234089538E-1,-5.839204967E-2,1.275020456E-1,2.637763518E-1
8.877108333E-2,-2.672833903E-1,-1.374159998E-1,1.116274399E-1,3.205998332E-1
9.871208333E-2,-2.313076651E-1,-7.049432427E-2,3.690879464E-2,2.446118248E-1
1.086540833E-1,-3.103652367E-1,4.011189938E-2,-5.750093400E-2,3.181853266E-1
1.185960833E-1,-3.947802465E-1,1.383480459E-1,-2.337623262E-1,4.792039754E-1
1.285370833E-1,-4.980700685E-1,1.776907441E-1,-3.942134321E-1,6.595847358E-1
1.384790833E-1,-6.378179379E-1,1.312185359E-1,-4.143652761E-1,7.718345730E-1
1.484210833E-1,-7.074434390E-1,7.688299209E-2,-2.735239774E-1,7.623664342E-1
1.583630833E-1,-6.304489844E-1,4.988844395E-2,-8.080208838E-2,6.375607863E-1
1.683040833E-1,-3.626714312E-1,-1.017555857E-1,-1.709603065E-1,4.136570955E-1
1.782460833E-1,-1.888302016E-1,-4.021714926E-3,7.223299384E-2,2.022143037E-1
1.881880834E-1,-3.493056464E-1,1.123972258E-1,2.586363816E-1,4.489324547E-1
1.981290834E-1,-5.476583310E-1,2.606548405E-1,1.435128915E-1,6.232708428E-1
2.080710834E-1,-5.373621882E-1,3.962260437E-1,-2.047858644E-1,6.983483725E-1
2.180130834E-1,-2.322151530E-1,4.858515805E-1,-5.627600080E-1,7.788931006E-1
2.279540834E-1,2.123101345E-1,5.662876332E-1,-6.840604967E-1,9.130695701E-1
2.378960833E-1,-2.264187350E-1,1.415751243E-1,-8.644108468E-1,9.047182277E-1
2.478380833E-1,6.942198877E-1,6.232547164E-2,-1.340319237E0,1.510722137E0
2.577800833E-1,1.549545769E0,2.956483796E-1,-6.663662374E-1,1.712467231E0
2.677210833E-1,1.882610482E0,4.926994009E-1,-1.186493611E-1,1.949628836E0
2.776627917E-1,1.606507882E0,4.529779494E-1,8.401513338E-2,1.671261542E0
2.876047917E-1,8.643528132E-1,5.341422728E-1,6.418634802E-1,1.201832967E0
2.975457917E-1,1.964083392E-1,2.787872024E-1,7.515321028E-1,8.252872479E-1
3.074877917E-1,1.196776671E-1,-3.472773935E-1,4.332494438E-1,5.680047646E-1
3.174297917E-1,6.290994470E-1,-4.909787115E-1,5.088837630E-1,9.464612478E-1
3.273707917E-1,8.711918628E-1,-3.122945255E-1,7.110354567E-1,1.167079497E0
3.373127917E-1,9.441025490E-1,-2.580121914E-1,6.086238134E-1,1.152528898E0
3.472547917E-1,7.347802685E-1,-3.483595669E-2,4.869467640E-1,8.821750041E-1
3.571967917E-1,1.203688811E-1,3.413215658E-1,5.070670331E-1,6.229815847E-1
3.671377917E-1,-8.261861363E-1,4.330830905E-1,7.633078104E-1,1.205314610E0
3.770797917E-1,-1.180619937E0,3.408980812E-1,1.101031877E0,1.649953372E0
3.870217917E-1,-1.046961358E0,-3.128723766E-1,1.068924231E0,1.528599431E0
3.969627917E-1,-1.779997694E-1,-1.004615676E0,7.562379420E-1,1.269973385E0
4.069047917E-1,9.833448212E-1,-1.163223009E0,4.921724206E-1,1.600714996E0
4.168467917E-1,1.613341523E0,-9.685541430E-1,3.284942365E-1,1.910203252E0
4.267887917E-1,1.311857769E0,-6.731498846E-1,-5.546376407E-2,1.475526280E0
4.367297917E-1,2.665615515E-1,-4.762750107E-1,-4.605343062E-1,7.141321963E-1
4.466717917E-1,-6.639785269E-1,-4.347618261E-1,-6.888306552E-1,1.050891527E0
4.566137917E-1,-1.044535494E0,-3.925186166E-1,-6.421640271E-1,1.287439281E0
4.665547917E-1,-8.528625959E-1,-2.886451694E-1,-6.003301227E-1,1.082167685E0
4.764967917E-1,-2.813615853E-1,-1.919760767E-1,-5.255851650E-1,6.263057731E-1
4.864387917E-1,4.553010482E-1,-5.842143193E-2,-1.742821097E-1,4.910054602E-1
4.963807917E-1,1.090895728E0,3.679741980E-1,3.908290637E-1,1.215814895E0
5.063217917E-1,1.429735444E0,7.873098998E-1,7.620699549E-1,1.801319220E0
5.162637917E-1,1.285462122E0,9.663876034E-1,1.125367404E0,1.962847335E0
5.262057917E-1,3.516541806E-1,9.197224371E-1,1.451480654E0,1.753951571E0
5.361467917E-1,-6.652973664E-1,5.241723315E-1,1.538370863E0,1.756121332E0
5.460887917E-1,-7.428250140E-1,2.207323909E-4,1.298239750E-1,7.540844214E-1
5.560307917E-1,-5.243312296E-1,-1.639345846E-1,-4.205454907E0,4.241184830E0
5.659717917E-1,-5.331704655E-1,-1.701131912E-1,-5.037987903E0,5.068977348E0
5.759137917E-1,5.203314418E-1,-1.735833675E-2,-2.488916459E0,2.542784155E0
5.858557917E-1,7.880924034E-1,1.287527651E-1,-1.015818064E0,1.292111934E0
5.957977917E-1,7.891527960E-1,8.528997257E-2,-3.665332979E-1,8.742900968E-1
6.057387917E-1,4.527502003E-1,9.928630650E-2,4.112826240E-1,6.196724226E-1
6.156807917E-1,-3.019247809E-1,-6.837412387E-2,9.720235884E-1,1.020129134E0
6.256227917E-1,-5.728552258E-1,-3.196120235E-1,8.602996695E-1,1.081864352E0
6.355637917E-1,-1.898222548E-1,-2.151113163E-1,1.649552161E-1,3.309313979E-1
6.455057917E-1,6.375754246E-1,9.112827122E-2,-4.950241077E-1,8.123149950E-1
6.554477917E-1,1.271085865E0,1.220157494E-1,-4.338435209E-1,1.348616817E0
6.653887917E-1,1.024921302E0,2.299452639E-1,-3.428725398E-1,1.104943473E0
6.753307917E-1,7.695470819E-1,3.087692392E-1,-1.444905460E-2,8.293068970E-1
6.852727917E-1,1.089445327E0,4.173187047E-2,2.736379981E-1,1.124059795E0
6.952147917E-1,1.185717978E0,2.643146127E-2,-5.262143254E-2,1.187179330E0
7.051557917E-1,1.090642836E0,1.745629223E-1,-1.115506659E0,1.569818180E0
7.150977917E-1,5.653088093E-1,-4.216588005E-2,-1.485507941E0,1.589995551E0
7.250397917E-1,1.308232641E-1,-3.216829611E-1,-1.456764198E0,1.497583581E0
7.349807917E-1,4.984154928E-1,-1.054372558E0,-1.916099825E0,2.243113469E0
7.449227917E-1,1.117942609E0,-1.551297157E0,-1.883427923E0,2.683955902E0
7.548647917E-1,1.582772280E0,-6.933303800E-1,-2.736233216E0,3.236177887E0
7.648057917E-1,1.845464290E0,-4.486206043E-1,-2.953347934E0,3.511305016E0
7.747477917E-1,1.723360102E0,-4.567764468E-1,-2.926366543E0,3.426694603E0
7.846897917E-1,1.699804886E0,-1.129430926E0,-2.722932554E0,3.402838898E0
7.946317917E-1,1.806713623E0,-1.549111321E0,-2.807599068E0,3.680566876E0
8.045727917E-1,1.936430009E0,-1.431038496E0,-2.942549881E0,3.802135211E0
8.145147917E-1,2.397518046E0,-1.328667490E0,-2.223544670E0,3.529532686E0
8.244567917E-1,3.194546750E0,-1.724720018E0,-6.860736930E-1,3.694656302E0
8.343977917E-1,3.381706182E0,-1.928296532E0,1.825500727E-1,3.897125703E0
8.443397917E-1,3.425268524E0,-1.337138790E0,-4.781946516E-1,3.707974478E0
8.542817917E-1,2.906915195E0,-9.963607232E-1,-9.556595707E-1,3.218101281E0
8.642227917E-1,2.694482342E0,-1.088196215E0,-9.237975079E-1,3.049230711E0
8.741647917E-1,2.190884462E0,-1.981971779E0,-7.745987839E-1,3.054208594E0
8.841067917E-1,1.078528283E0,-2.810280601E0,-1.158563801E0,3.225394610E0
8.940487917E-1,1.711615677E0,-2.624062570E0,-2.289561489E0,3.880389723E0
9.039897917E-1,2.685779931E0,-2.327216096E0,-2.679460260E0,4.450714086E0
9.139317917E-1,3.278931427E0,-2.200171448E0,-2.638963614E0,4.749344656E0
9.238737917E-1,3.893143424E0,-1.637189100E0,-2.850978976E0,5.095589759E0
9.338147917E-1,4.043853069E0,-1.529417022E0,-1.767085873E0,4.670594882E0
9.437567917E-1,2.493660305E0,-2.038757306E0,2.556823683E-1,3.231137036E0
9.536987917E-1,4.036391437E-1,-1.947911017E0,9.147360778E-1,2.189525972E0
9.636407917E-1,1.505242878E-1,-2.046947209E0,1.909055684E0,2.803059764E0
9.735817917E-1,-2.685938390E0,-1.660778230E0,2.697634576E0,4.153273609E0
9.835237917E-1,-3.502640051E0,-5.405395652E-1,1.565010778E0,3.874264973E0
9.934657917E-1,-2.602055404E0,4.045089170E-1,3.008790064E-1,2.650442976E0
1.003406792E0,-1.809246052E0,7.423597218E-1,-2.166890413E-1,1.967593295E0
1.013348792E0,2.098881447E-1,6.507774143E-1,-5.828276521E-1,8.984722301E-1
1.023290792E0,2.822658572E0,6.977701709E-1,-1.101661037E0,3.109331385E0
1.033231792E0,3.679159305E0,4.435421513E-1,-1.450373191E0,3.979513190E0
1.043173792E0,3.707365104E0,-5.376105487E-1,-1.736411380E0,4.129007822E0
1.053115792E0,3.193009517E0,-1.357797442E0,-2.048470262E0,4.029287044E0
1.063057792E0,1.374139532E0,-1.720051309E0,-1.588058163E0,2.714546866E0
1.072998792E0,-4.138746947E-1,-2.096080485E0,-3.923992165E0,4.467948094E0
1.082940792E0,-1.270817478E0,-2.670978289E0,-6.798329598E0,7.413931980E0
1.092882792E0,-9.024692041E-1,-2.823091850E0,-3.340832976E0,4.466034396E0
1.102823792E0,1.428428006E-1,-3.091533720E0,-3.296449100E0,4.521566264E0
1.112765792E0,5.899366969E-1,-2.322909621E0,-2.320465778E0,3.335940023E0
1.122707792E0,6.813070428E-1,-1.771379776E0,-9.974689168E-1,2.144040540E0
1.132648792E0,2.674908203E-1,-2.517194763E0,-7.944442338E-1,2.653104306E0
1.142590792E0,-7.923526847E-1,-2.454464372E0,-5.155028111E-1,2.630201756E0
1.152532792E0,-3.315527980E0,-2.000744703E0,5.955126017E-1,3.917951048E0
1.162474792E0,-4.086622528E0,-2.320595001E0,-2.391046348E-1,4.705615355E0
1.172415792E0,-4.002241943E0,-2.361310918E0,-8.868203008E-1,4.730769501E0
1.182357792E0,-4.450141001E0,-1.996154639E0,-7.918635651E-1,4.941197849E0
1.192299792E0,-4.270863031E0,-1.953233737E0,-3.756906223E-1,4.711320038E0
1.202240792E0,-3.723749587E0,-1.878146133E0,-3.847672552E-2,4.170758245E0
1.212182792E0,-3.808859904E0,-1.937564954E0,1.018043514E0,4.392947110E0
1.222124792E0,-3.929898437E0,-2.426406215E0,2.034357715E0,5.046797020E0
1.232065792E0,-3.085497347E0,-2.438005337E0,2.061946048E0,4.440246098E0
1.242007792E0,-3.467875430E0,-2.412698003E0,2.110950685E0,4.722645916E0
1.251949792E0,-3.755243275E0,-2.366542422E0,1.080226606E0,4.568289024E0
1.261891792E0,-3.059558514E0,-2.137674215E0,-1.733050400E-1,3.736386488E0
1.271832792E0,-3.197275645E0,-1.823013906E0,-1.282291761E0,3.897463715E0
1.281774417E0,-4.450600592E0,-2.459846442E0,-1.493335608E0,5.299881262E0
1.291716417E0,-4.913450981E0,-3.181625572E0,-9.954191753E-1,5.937642727E0
1.301657417E0,-5.158227122E0,-3.232840165E0,-8.346818483E-1,6.144530606E0
1.311599417E0,-5.281349604E0,-3.112861732E0,-7.830825090E-1,6.180273458E0
1.321541417E0,-5.147942455E0,-3.001917247E0,-9.188455009E-1,6.029684546E0
1.331482417E0,-5.084557468E0,-2.573159634E0,-4.305791666E-1,5.714829268E0
1.341424417E0,-4.885763245E0,-1.449739938E0,1.164512904E0,5.227668570E0
1.351366417E0,-4.201085867E0,-1.251678371E-1,4.099157204E0,5.870935124E0
1.361308417E0,-4.489712033E0,5.952564937E-1,5.870581711E0,7.414551508E0
1.371249417E0,-4.928705197E0,8.190276825E-1,5.462453660E0,7.402792801E0
1.381191417E0,-4.657354045E0,7.671336436E-1,3.675051051E0,5.982093359E0
1.391133417E0,-4.493362450E0,5.248238575E-1,1.993721028E0,4.943750573E0
1.401074417E0,-6.473422043E0,-1.175417815E0,1.648065798E0,6.782545309E0
1.411016417E0,-5.298896513E0,-1.999970532E0,-4.518576229E-1,5.681756920E0
1.420958417E0,-3.926782456E0,-1.896106440E0,-4.489749455E-1,4.383653567E0
1.430899417E0,-2.913526349E0,-1.642643675E0,8.541380564E-2,3.345774880E0
1.440841417E0,-2.318712198E0,-1.759972150E0,1.619269431E-1,2.915501425E0
1.450783417E0,-1.494157727E0,-1.964936355E0,7.836510046E-1,2.589901753E0
1.460725417E0,2.383260781E-1,-1.635006627E0,-3.534209899E-1,1.689660435E0
1.470666417E0,-1.122501099E0,-2.042984989E0,-2.563362332E-1,2.345102268E0
1.480608417E0,-3.376802123E0,-3.563694338E0,-8.951888359E-1,4.990398076E0
1.490550417E0,-3.710431969E0,-4.300606062E0,-1.555539458E0,5.889161307E0
1.500491417E0,-3.607369530E0,-3.049440492E0,-1.665490647E0,5.008598740E0
1.510433417E0,-3.223861765E0,-1.831056751E0,-1.141013676E0,3.879170751E0
1.520375417E0,-2.083738913E0,-1.088138766E0,-2.884405169E-1,2.368377454E0
1.530316417E0,-2.368510010E0,-1.271174743E0,9.598324361E-1,2.854295569E0
1.540258417E0,-1.051797152E0,-1.066143880E0,1.941753022E0,2.452212229E0
1.550200417E0,-1.702668852E0,-2.268693945E0,7.439307225E-1,2.932488083E0
1.560141417E0,-1.080261397E0,-3.000329728E0,-7.762278181E-1,3.281992198E0
1.570083417E0,-3.389934969E-1,-1.866782654E0,-1.402931515E0,2.359663303E0
1.580025417E0,-9.329519087E-1,-1.112750866E0,-4.720667696E-1,1.526912175E0
1.589967417E0,-6.112264091E-1,-1.254839376E0,1.446547358E0,2.010153935E0
1.599908417E0,-6.948415929E-1,-1.022721872E0,1.186659088E0,1.713745797E0
1.609850417E0,-1.598920535E0,-2.065604943E-1,-1.542528818E0,2.231279739E0
1.619792417E0,-2.079942316E0,1.666544169E-1,-1.663838663E0,2.668762415E0
1.629733417E0,-2.186746972E0,8.353946239E-1,1.126883002E0,2.598001501E0
1.639675417E0,-2.537980446E0,1.822350247E0,2.295138563E0,3.876850034E0
1.649617417E0,-2.104711706E0,2.400966734E0,3.419442358E0,4.678358544E0
1.659558417E0,-2.063499945E0,2.837875366E0,5.622479673E0,6.627506793E0
1.669500417E0,-2.952494826E0,2.811569912E0,4.913601839E0,6.384797107E0
1.679442417E0,-3.231427478E0,3.040787782E0,3.137268887E0,5.434240512E0
1.689384417E0,-2.899782177E0,2.776891245E0,2.889251926E0,4.946477368E0
1.699325417E0,-2.814746704E0,2.841460878E0,2.700378090E0,4.825840938E0
1.709267417E0,-2.862481619E0,2.875062488E0,2.856774736E0,4.961949941E0
1.719209417E0,-2.008501620E0,3.372975120E0,2.832530718E0,4.840895597E0
1.729150417E0,-2.209200865E-1,4.211697979E0,2.170165146E0,4.743081521E0
1.739092417E0,2.816314343E0,3.152995850E0,3.389191788E0,5.418452757E0
1.749034417E0,5.712445518E0,1.372829756E0,4.285457096E0,7.271989952E0
1.758975417E0,6.007639276E0,1.219105872E0,2.931889822E0,6.795139935E0
1.768917417E0,4.726559350E0,1.902956454E0,1.593036775E0,5.338480376E0
1.778859417E0,-3.738765821E0,4.531865196E0,-3.061195734E-1,5.883016336E0
1.788800417E0,-1.015979681E1,8.286903234E0,-2.399236251E0,1.332856223E1
1.798742417E0,-1.085465419E-1,5.066124705E0,-7.044994390E-1,5.116025932E0
1.808684417E0,1.944825441E0,1.944528987E0,-6.182112005E-1,2.818816076E0
1.818626417E0,5.578308052E-1,1.818460094E0,-8.669033687E-1,2.090333412E0
1.828567417E0,4.375038779E0,3.319154423E-1,-2.272066619E0,4.940993716E0
1.838509417E0,5.750890961E0,-8.792923030E-1,-4.013439946E0,7.067786216E0
1.848451417E0,5.161141375E0,-1.821130225E0,-2.692516508E0,6.099470529E0
1.858392417E0,6.904136719E0,-2.680327402E0,2.477314706E-1,7.410305642E0
1.868334417E0,7.720198694E0,-2.384513547E0,1.792936267E0,8.276593090E0
1.878276417E0,7.256703358E0,-1.559521412E0,2.148395669E0,7.727059894E0
1.888217417E0,5.465804114E0,-1.855487880E0,1.496622767E0,5.963030236E0
1.898159417E0,3.072074479E0,-2.387320210E0,1.071077907E0,4.035362099E0
1.908101417E0,1.780740291E0,-2.188179540E0,3.354607554E-1,2.841073671E0
1.918043417E0,4.909409970E-1,-1.985612694E0,6.538928108E-1,2.147383674E0
1.927984417E0,3.492834270E-1,-1.093827815E0,5.300639860E-1,1.264684162E0
1.937926417E0,8.278248185E-1,-1.487096044E-1,6.779915254E-1,1.080315225E0
1.947868417E0,1.084952618E0,4.953647080E-1,3.437342732E-1,1.241233914E0
1.957809417E0,6.986294192E-1,9.174506477E-1,-5.710367417E-1,1.286810676E0
1.967751417E0,4.666504937E-1,1.144064753E0,-8.881006949E-1,1.521633887E0
1.977693417E0,-2.162259418E-1,5.850425774E-1,-1.657648215E0,1.771108715E0
1.987634417E0,-1.551452839E0,-1.214881259E0,-2.311175137E0,3.037181736E0
1.997576417E0,-1.621783733E0,-1.778592316E0,-1.543337342E0,2.859276702E0
2.007518417E0,-1.064703126E0,-1.567168693E0,-1.026149948E0,2.154667996E0
2.017459417E0,-7.241835058E-2,-1.493794030E0,-6.321973018E-1,1.623680526E0
2.027401417E0,1.012184020E0,-1.434945897E0,-5.089144608E-1,1.828272449E0
2.037343417E0,2.511967937E0,-4.766875318E-1,-4.527368979E-1,2.596571705E0
2.047284417E0,3.849017411E0,1.274360013E0,-9.789713962E-1,4.171008688E0
2.057226417E0,3.120402886E0,2.031706587E0,-7.229776637E-1,3.793078239E0
2.067168417E0,3.323826349E-1,1.186927475E0,-4.227093990E-1,1.303057283E0
2.077110417E0,-1.132179410E0,1.464055091E-1,3.394226825E-1,1.190996451E0
2.087051417E0,-1.858727530E0,-7.810155183E-1,5.235913376E-1,2.083026922E0
2.096993417E0,-1.168050324E0,-2.079038921E-1,1.400883235E-2,1.186491397E0
2.106935417E0,-2.011295419E0,7.422742063E-1,-8.970323168E-2,2.145769543E0
2.116876417E0,-3.044965033E0,4.108855981E-1,1.573385160E0,3.451982023E0
2.126818417E0,-3.509571925E0,-2.416309243E-1,3.017319982E0,4.634619777E0
2.136760417E0,-3.361287705E0,-1.002477642E0,2.648207477E0,4.395022105E0
2.146701417E0,-2.404583237E0,-1.323856401E0,1.211801603E0,3.000513196E0
2.156643417E0,-1.782061762E0,-4.890236950E-1,1.944585486E-1,1.858144888E0
2.166585417E0,-1.847600278E0,4.483510476E-1,-9.263389271E-2,1.903477472E0
2.176526417E0,-1.823940105E0,1.145449081E0,3.475603256E-3,2.153792744E0
2.186468417E0,-1.873418074E0,1.982994311E0,-2.977893194E-1,2.744201195E0
2.196410417E0,-2.454355906E0,3.053717730E0,-5.106233096E-1,3.950922810E0
2.206352417E0,-2.302844608E0,4.033266100E0,-9.902166152E-1,4.748774334E0
2.216293417E0,-1.236555133E0,4.564434187E0,-1.456827933E0,4.948280072E0
2.226235417E0,4.647361153E-1,4.578899029E0,-1.168680654E0,4.748485068E0
2.236177417E0,1.793961430E0,4.452340724E0,-6.339288086E-1,4.841848951E0
2.246118417E0,2.651232827E0,4.101079769E0,-1.249503573E-1,4.885028491E0
2.256060417E0,2.721046827E0,3.637967425E0,-8.401871480E-2,4.543782782E0
2.266002417E0,2.339800766E0,3.222584733E0,-1.907607329E-1,3.986992556E0
2.275943583E0,1.993556136E0,2.930988182E0,-5.580244211E-1,3.588363004E0
2.285885583E0,1.743633860E0,3.335866351E0,-1.036613029E0,3.904206695E0
2.295827583E0,1.733957303E0,3.264666560E0,-1.009999354E0,3.832069202E0
2.305768583E0,1.570044061E0,1.586118641E0,-2.008642830E-2,2.231863384E0
2.315710583E0,8.107556266E-1,1.890335239E0,5.618952048E-1,2.132233154E0
2.325652583E0,-7.009057403E-3,2.301888004E0,7.941529693E-1,2.435039311E0
2.335594583E0,7.910130876E-1,3.736391852E0,-7.781547680E-3,3.819212789E0
2.345535583E0,1.317151399E0,4.773378591E0,-1.073441790E0,5.066784805E0
2.355477583E0,1.301531147E0,5.170284666E0,-1.349716444E0,5.499778298E0
2.365419583E0,9.541597599E-1,5.251833444E0,-8.993754423E-1,5.413044573E0
2.375360583E0,5.656754297E-1,5.051528301E0,-7.323591558E-1,5.135589236E0
2.385302583E0,3.224838835E-1,4.650226874E0,-9.472525171E-1,4.756668284E0
2.395244583E0,4.887412745E-1,4.356834642E0,-1.332092789E0,4.582068019E0
2.405185583E0,1.011986969E0,4.271919038E0,-1.535553675E0,4.650949901E0
2.415127583E0,1.750628007E0,4.616540480E0,-1.999462409E0,5.326818407E0
2.425069583E0,2.554812825E0,5.240786884E0,-2.011077318E0,6.167442559E0
2.435010583E0,2.951144119E0,5.902640825E0,-1.769580295E0,6.832410610E0
2.444952583E0,3.239482017E0,6.084992677E0,-1.421494378E0,7.038609656E0
2.454894583E0,3.476215021E0,6.051706232E0,-1.020547292E0,7.053278385E0
2.464835583E0,3.414611681E0,6.247668064E0,-1.394990119E0,7.255268885E0
2.474777583E0,3.302386071E0,6.472426262E0,-2.348586207E0,7.636354671E0
2.484719583E0,3.259755483E0,6.471411186E0,-3.497620801E0,8.046025094E0
2.494661583E0,3.325763824E0,6.091332813E0,-3.895758884E0,7.958767350E0
2.504602583E0,3.250009929E0,5.346113949E0,-4.639146985E0,7.788785762E0
2.514544583E0,4.084160265E0,-5.840684313E0,-4.791690316E0,8.588029716E0
2.524486583E0,1.501699758E0,-4.914993593E1,-5.451601228E0,4.947414739E1
2.534427583E0,-1.304850027E-2,-6.737508965E1,-5.450142932E0,6.759516946E1
2.544369583E0,-3.586563675E-1,-4.121171854E1,-4.519193695E0,4.146031224E1
2.554311583E0,-1.110498592E0,-1.212579678E1,-1.292897880E0,1.224498834E1
2.564252583E0,2.930361360E-1,4.055903596E-1,7.637703252E-1,9.130820480E-1
2.574194583E0,1.750932355E0,6.630984625E0,4.060231705E0,7.970018990E0
2.584136583E0,3.002659551E0,1.062202740E1,5.546354188E0,1.235335886E1
2.594077583E0,3.319139805E0,1.026683594E1,2.803482628E0,1.114827898E1
2.604019583E0,3.562056825E0,7.032164429E0,1.584883125E0,8.040611911E0
2.613961583E0,3.494599544E0,2.638446136E0,2.707542244E-1,4.387132530E0
2.623902583E0,2.818646797E0,-8.732278633E-1,-5.664924319E-1,3.004698045E0
2.633844583E0,1.156600818E0,-3.502057668E0,-8.107926102E-1,3.776177699E0
2.643786583E0,-8.451624707E-1,-4.437367174E0,2.910890132E-3,4.517137978E0
2.653728583E0,-1.443578727E0,-3.168619026E0,1.709456739E0,3.878957130E0
2.663669583E0,-7.987789940E-1,-1.028382561E0,2.964056525E0,3.237475816E0
2.673611583E0,-1.383421987E-1,5.788082761E-1,3.161916947E0,3.217433195E0
2.683553583E0,2.555261014E-1,1.557110020E0,2.583775839E0,3.027504383E0
2.693494583E0,6.062084748E-1,1.780994645E0,1.649513569E0,2.502064278E0
2.703436583E0,6.012392917E-1,1.528452231E0,8.125382964E-1,1.832450106E0
2.713378583E0,1.035595979E-1,1.035650066E0,-1.049189293E-1,1.046089686E0
2.723319583E0,-7.588153215E-1,3.098001033E-1,-7.826897223E-1,1.133304901E0
2.733261583E0,-1.188919694E0,-4.130718720E-1,-9.945387308E-1,1.604140174E0
2.743203583E0,-1.116555284E0,-8.123595178E-1,-1.044274051E0,1.731222684E0
2.753144583E0,-1.006057015E0,-7.860985029E-1,-9.869620550E-1,1.613752048E0
2.763086583E0,-9.315132013E-1,-4.635204792E-1,-8.062632108E-1,1.316293449E0
2.773028583E0,-8.232967347E-1,-1.173050863E-1,-4.702424383E-1,9.553564504E-1
2.782969583E0,-8.430161771E-1,3.059900576E-1,-2.334876533E-1,9.267268608E-1
2.792911583E0,-9.493181922E-1,1.145370144E-1,2.854617991E-2,9.566287901E-1
2.802853583E0,-8.991672083E-1,1.175348818E-2,3.224810330E-1,9.553187058E-1
2.812795583E0,-5.376342300E-1,1.261718041E-1,4.717789404E-1,7.263231085E-1
2.822736583E0,-1.353541254E-1,1.632080680E-1,5.621361101E-1,6.007949891E-1
2.832678583E0,1.527419174E-1,3.528519827E-1,5.966499583E-1,7.098068665E-1
2.842620583E0,2.402283235E-1,2.768487042E-1,6.150275378E-1,7.159704775E-1
2.852561583E0,2.654131584E-1,2.001186168E-1,4.845188539E-1,5.875798884E-1
2.862503583E0,2.131371501E-1,2.084953380E-1,3.305429547E-1,4.451476110E-1
2.872445583E0,7.733425096E-2,1.077624303E-1,2.813493061E-1,3.110478417E-1
2.882386583E0,-2.438128129E-2,3.605744004E-2,2.594595234E-1,2.630852146E-1
2.892328583E0,-1.176576734E-2,3.062069893E-2,2.754436183E-1,2.773900635E-1
2.902270583E0,6.035386361E-2,-5.285239756E-2,2.980747548E-1,3.086819144E-1
2.912211583E0,1.523136820E-1,-1.342889088E-1,1.960055391E-1,2.822253357E-1
2.922153583E0,2.331794319E-1,-8.180020809E-2,4.004531421E-2,2.503348731E-1
2.932095583E0,3.713516229E-1,1.704755723E-2,-4.446917139E-2,3.743930478E-1
2.942036583E0,4.289087632E-1,1.485643011E-1,-4.062879324E-2,4.557244536E-1
2.951978583E0,2.882468279E-1,7.678271234E-2,-1.036932068E-1,3.158070611E-1
2.961920583E0,1.911035259E-1,3.685675442E-2,-1.139411831E-1,2.255251010E-1
2.971861583E0,3.035560079E-1,2.860282481E-2,-2.038222432E-1,3.667531572E-1
2.981803583E0,4.470688994E-1,3.370744407E-2,-4.472301364E-1,6.332626529E-1
2.991745583E0,3.637061691E-1,1.332147753E-1,-4.621965234E-1,6.030372958E-1
3.001686583E0,1.588945770E-1,1.494530779E-1,-8.020040989E-3,2.182842875E-1
3.011628583E0,-1.352320647E-1,8.212355912E-2,2.810380881E-1,3.225126311E-1
3.021570583E0,-5.672818060E-1,-1.897187591E-2,2.166485493E-1,6.075402649E-1
3.031512583E0,-9.002618802E-1,-5.528068775E-1,2.264158845E-1,1.080430955E0
3.041453583E0,-7.698460208E-1,-4.886740315E-1,3.728652477E-1,9.851363854E-1
3.051395583E0,-5.968940064E-1,5.171979189E-2,6.324944866E-1,8.712098871E-1
3.061337583E0,-4.361590183E-1,4.039636642E-1,8.592331374E-1,1.044845881E0
3.071278583E0,-2.889284670E-1,1.068221980E-1,8.549870355E-1,9.087868133E-1
3.081220583E0,-2.635359829E-1,4.413829207E-2,4.541300701E-1,5.269094075E-1
3.091162583E0,-7.689008184E-2,1.952496403E-1,6.612506546E-2,2.200159790E-1
3.101103583E0,5.299989358E-2,1.307811642E-1,-1.527212329E-1,2.079338275E-1
3.111045583E0,-4.177104682E-3,9.448632717E-2,-2.767042780E-1,2.924215650E-1
3.120987583E0,4.114583328E-2,1.565808338E-1,-2.407240212E-1,2.901010022E-1
3.130928583E0,6.784100398E-2,1.861788547E-1,-1.356076021E-1,2.401132848E-1
3.140870583E0,-1.003509383E-1,9.700355351E-2,6.756560013E-2,1.550648591E-1
3.150812583E0,-2.330100819E-1,3.243976772E-2,2.695531332E-1,3.577777641E-1
3.160753583E0,-3.178652409E-1,1.291883826E-2,3.556604735E-1,4.771787717E-1
3.170695583E0,-4.118386942E-1,7.020167112E-3,4.003541780E-1,5.744073995E-1
3.180637583E0,-4.763204728E-1,3.925996006E-2,4.019949067E-1,6.245177678E-1
3.190578583E0,-4.746749201E-1,7.193595529E-2,3.288719666E-1,5.819345598E-1
3.200520583E0,-4.693071762E-1,9.091075480E-2,2.289323799E-1,5.300226651E-1
3.210462583E0,-5.499756557E-1,2.119674146E-2,1.047749417E-1,5.602680716E-1
3.220404583E0,-5.628687662E-1,3.357997477E-2,7.975368261E-2,5.694817930E-1
3.230345583E0,-3.350497692E-1,1.460055596E-1,8.793517984E-2,3.759103179E-1
3.240287583E0,-8.655282497E-2,4.985160649E-2,2.534782603E-2,1.030489518E-1
3.250229583E0,-4.445854408E-1,1.327762341E-1,1.937638628E-1,5.028222122E-1
3.260170583E0,-4.506101194E-1,2.032112092E-1,3.263870461E-1,5.923451520E-1
3.270112583E0,-4.460775040E-1,1.387976968E-1,4.045279205E-1,6.179747395E-1
3.280054792E0,-5.585600992E-1,1.708416080E-1,4.838828230E-1,7.584977428E-1
3.289995792E0,-2.451028548E-1,7.238677561E-2,4.423513658E-1,5.108717898E-1
3.299937792E0,-1.493261933E-2,9.201178551E-3,4.037796231E-1,4.041603998E-1
3.309879792E0,-2.290105864E-2,1.990976930E-2,3.897085910E-1,3.908882747E-1
3.319820792E0,1.716679658E-1,-6.243773818E-2,3.149626100E-1,3.641013696E-1
3.329762792E0,3.562936538E-1,-7.688386917E-2,2.437468855E-1,4.384847105E-1
3.339704792E0,3.026669388E-1,4.248177588E-2,3.041347361E-1,4.311727204E-1
3.349645792E0,2.208949435E-1,6.863110900E-2,2.670353953E-1,3.532884197E-1
3.359587792E0,8.363067895E-2,-9.108207822E-3,2.122705197E-1,2.283327034E-1
3.369529792E0,-1.733373459E-1,5.129996181E-2,1.785973549E-1,2.541152037E-1
3.379470792E0,-3.577706605E-1,7.028996408E-2,1.492362193E-1,3.939695086E-1
3.389412792E0,-4.067552711E-1,4.540713787E-2,1.328920090E-1,4.303160987E-1
3.399354792E0,-3.245678312E-1,5.132042706E-2,1.299029855E-1,3.533452262E-1
3.409296792E0,-3.059171136E-1,5.411890447E-2,1.486384146E-1,3.443944170E-1
3.419237792E0,-2.822072388E-1,5.239865363E-2,1.299110985E-1,3.150610069E-1
3.429179792E0,-1.620212294E-1,3.135160089E-2,9.945397541E-2,1.926782159E-1
3.439121792E0,-1.497520168E-1,5.142743111E-2,5.520824075E-2,1.676854110E-1
3.449062792E0,-1.733901170E-1,9.195214391E-2,-7.490283251E-3,1.964062977E-1
3.459004792E0,-1.796057072E-1,1.126822776E-1,-4.710743509E-2,2.171971827E-1
3.468946792E0,-1.627712810E-1,1.199626458E-1,-2.882085286E-2,2.042453619E-1
3.478887792E0,-1.463907449E-1,1.086529613E-1,3.057158232E-2,1.848522054E-1
3.488829792E0,-1.247018141E-1,8.150141537E-2,1.046721768E-1,1.820694586E-1
3.498771792E0,-1.126925102E-1,5.041878641E-2,1.589808235E-1,2.012872527E-1
3.508712792E0,-1.157840793E-1,4.164211571E-2,1.521644318E-1,1.956886127E-1
3.518654792E0,-8.920219839E-2,4.991534114E-2,1.361920314E-1,1.702845938E-1
3.528596792E0,-6.648079544E-2,5.728283286E-2,1.172553849E-1,1.464576539E-1
3.538537792E0,-7.621143937E-2,4.972472191E-2,1.110653763E-1,1.435835968E-1
3.548479792E0,-1.162524413E-1,3.679360449E-2,1.689518610E-1,2.083581791E-1
3.558421792E0,-1.351646756E-1,5.846163154E-2,2.449796247E-1,2.858360866E-1
3.568362792E0,-1.623276235E-1,5.123213410E-2,2.686573398E-1,3.180436372E-1
3.578304792E0,-2.036634913E-1,4.022825897E-2,2.945443522E-1,3.603519196E-1
3.588246792E0,-1.540600991E-1,3.788235605E-2,1.713351130E-1,2.335065481E-1
3.598187792E0,-9.708892286E-2,2.689076006E-2,4.223209977E-2,1.092379154E-1
3.608129792E0,-1.281047474E-1,7.745221853E-3,2.705959842E-2,1.311603470E-1
3.618071792E0,-6.946638376E-2,1.819302678E-2,5.340013549E-2,8.948820685E-2
3.628012792E0,-4.579992458E-2,3.695732653E-2,1.027005688E-1,1.183675796E-1
3.637954792E0,-4.345270604E-2,2.786081314E-2,1.571952300E-1,1.654530232E-1
3.647896792E0,-4.566456154E-2,3.954822779E-2,1.720752244E-1,1.823710431E-1
3.657837792E0,-8.887972444E-2,4.208124161E-2,1.587950282E-1,1.867787389E-1
3.667779792E0,-1.208256948E-1,3.761630774E-2,1.543733637E-1,1.996120501E-1
3.677721792E0,-1.370653130E-1,5.374760628E-2,1.593752182E-1,2.169704251E-1
3.687663792E0,-1.189345591E-1,5.508077145E-2,1.512043921E-1,2.001051946E-1
3.697604792E0,-9.099685505E-2,2.715739310E-2,1.427259294E-1,1.714311598E-1
3.707546792E0,-6.382396683E-2,1.288433969E-2,9.668261446E-2,1.165634286E-1
3.717488792E0,-4.777482167E-2,2.719306111E-2,8.419522762E-2,1.005521383E-1
3.727429792E0,-2.976525128E-3,2.785321176E-2,8.517405152E-2,8.966203299E-2
3.737371792E0,9.223690331E-3,4.128017306E-2,1.140989117E-1,1.216868555E-1
3.747313792E0,4.072512612E-2,4.032298386E-2,1.279978895E-1,1.402424281E-1
3.757254792E0,5.361472830E-2,3.963769019E-2,1.304852951E-1,1.465336064E-1
3.767196792E0,3.158519715E-2,3.543178797E-2,1.031951702E-1,1.135882011E-1
3.777138792E0,-1.979443297E-2,5.258167148E-2,5.890353486E-2,8.140195434E-2
3.787079792E0,-4.320332229E-2,6.703189552E-2,-1.229377091E-4,7.974846198E-2
3.797021792E0,-3.447021335E-2,7.439178586E-2,-4.264155105E-2,9.241555761E-2
3.806963792E0,-2.607712001E-2,5.259804368E-2,-3.685383081E-2,6.931648601E-2
3.816904792E0,1.374344185E-2,2.603999019E-2,1.284282446E-2,3.212322249E-2
3.826846792E0,3.912620500E-2,-5.075383186E-3,7.827886865E-2,8.765957283E-2
3.836788792E0,6.604707822E-2,-1.808076024E-2,1.284867167E-1,1.455952156E-1
3.846729792E0,7.716658205E-2,-2.847418606E-2,1.582408583E-1,1.783413298E-1
3.856671792E0,1.060969971E-1,-2.983249426E-2,1.739651906E-1,2.059379471E-1
3.866613792E0,8.741251186E-2,-1.578105032E-2,1.645595057E-1,1.870021917E-1
3.876554792E0,1.922988430E-2,1.418417573E-2,1.199521208E-1,1.223089963E-1
3.886496792E0,-6.483231917E-2,2.937991977E-2,8.017599776E-2,1.072128720E-1
3.896438792E0,-9.255279914E-2,5.859027028E-2,2.630545378E-2,1.126535277E-1
3.906379792E0,-8.394131228E-2,6.393111706E-2,8.949748278E-3,1.058934825E-1
3.916321792E0,-7.082673848E-2,4.796938777E-2,-1.868623942E-3,8.556273021E-2
3.926263792E0,-2.630881593E-2,1.946596563E-2,8.667035401E-4,3.273879638E-2
3.936204792E0,3.003963187E-2,8.706504107E-4,-1.398580894E-3,3.008477262E-2
3.946146792E0,3.797211081E-2,1.437187135E-2,-5.649506673E-3,4.099205790E-2
3.956088792E0,2.688842118E-2,5.000889659E-2,1.128395677E-2,5.788958984E-2
3.966030792E0,1.133628935E-3,8.275856674E-2,2.768430032E-2,8.727362698E-2
3.975971792E0,-3.753883213E-2,9.324671745E-2,2.966665260E-2,1.048056511E-1
3.985913792E0,-4.416972086E-2,7.858891726E-2,4.496611163E-2,1.007429072E-1
3.995855792E0,-3.716534123E-2,4.996036470E-2,2.895877406E-2,6.867249249E-2
4.005796792E0,-3.582954481E-2,1.552201867E-2,3.333972730E-2,5.134419891E-2
4.015738792E0,6.001582146E-3,7.186812758E-3,1.911805630E-2,2.128777448E-2
4.025680792E0,4.882381216E-2,-8.521147370E-3,1.409178972E-2,5.152623724E-2
4.035621792E0,7.721993789E-2,-1.185172141E-2,6.246003069E-2,1.000231850E-1
4.045563792E0,8.621339411E-2,-1.162777305E-2,1.134044087E-1,1.429283539E-1
4.055505792E0,9.493890166E-2,2.955182791E-3,1.510486369E-1,1.784315523E-1
4.065446792E0,6.333192363E-2,2.509917319E-2,1.700544266E-1,1.831922735E-1
4.075388792E0,6.466143429E-3,4.693618476E-2,1.623327398E-1,1.691056914E-1
4.085330792E0,-6.152951941E-2,6.528825581E-2,1.031870572E-1,1.367333422E-1
4.095271792E0,-1.022115223E-1,8.949455917E-2,3.011082172E-2,1.391514750E-1
4.105213792E0,-1.345192891E-1,1.048446697E-1,1.505073309E-2,1.712143933E-1
4.115155792E0,-1.321811338E-1,9.051197469E-2,2.752291717E-2,1.625477796E-1
4.125096792E0,-1.104806547E-1,6.942399144E-2,4.685023069E-2,1.386384137E-1
4.135038792E0,-1.042950314E-1,5.537547112E-2,1.090387313E-1,1.607275375E-1
4.144980792E0,-1.000154543E-1,5.243899941E-2,1.671707261E-1,2.017399103E-1
4.154921792E0,-1.063536899E-1,3.854367614E-2,1.528624432E-1,1.901674232E-1
4.164863792E0,-9.902975991E-2,2.410163820E-2,1.196528164E-1,1.571769029E-1
4.174805792E0,-9.337506384E-2,2.635866344E-2,7.963322997E-2,1.255194527E-1
4.184746792E0,-1.094648471E-1,2.477465272E-2,2.613829650E-2,1.152369156E-1
4.194688792E0,-1.289353444E-1,4.063288629E-2,2.070966840E-2,1.367634631E-1
4.204630792E0,-1.540671158E-1,6.007195473E-2,4.243324399E-2,1.707216920E-1
4.214571792E0,-1.752469003E-1,7.488996863E-2,9.565445468E-2,2.132363904E-1
4.224513792E0,-1.696926302E-1,6.292071819E-2,1.370398776E-1,2.270121882E-1
4.234455792E0,-1.399973993E-1,4.686484873E-2,1.743967883E-1,2.284946949E-1
4.244396792E0,-8.436260417E-2,3.725728869E-2,1.886121735E-1,2.099516767E-1
4.254338792E0,-3.046808660E-2,2.532195210E-2,1.838421611E-1,1.880623454E-1
4.264280792E0,-6.905269325E-3,3.029676318E-2,1.526952128E-1,1.558249166E-1
4.274221792E0,-1.598204836E-2,5.269744635E-2,1.280961227E-1,1.394312138E-1
4.284164292E0,-3.570982307E-2,5.711735666E-2,1.072239017E-1,1.266275997E-1
4.294106292E0,-5.122804105E-2,5.798391402E-2,7.212891340E-2,1.057781954E-1
4.304047292E0,-8.576228142E-2,4.270513952E-2,5.006005973E-2,1.080967503E-1
4.313989292E0,-1.133981229E-1,5.054216266E-2,3.772389650E-2,1.297564521E-1
4.323931292E0,-1.503941873E-1,6.604663968E-2,3.107429668E-2,1.671711162E-1
4.333872292E0,-1.547190803E-1,7.884911835E-2,8.458582163E-3,1.738583472E-1
4.343814292E0,-1.377042675E-1,8.785909295E-2,8.041090965E-3,1.635430972E-1
4.353756292E0,-1.004675902E-1,5.378035069E-2,3.580103964E-2,1.194478014E-1
4.363697292E0,-5.230188221E-2,2.240828454E-2,5.835879363E-2,8.150685181E-2
4.373639292E0,-4.584655613E-3,2.070499063E-3,1.004224205E-1,1.005483395E-1
4.383581292E0,2.212410986E-2,1.148451626E-2,1.304583979E-1,1.328185376E-1
4.393522292E0,2.768028036E-2,3.717484295E-2,1.569638995E-1,1.636637792E-1
4.403464292E0,-2.850254506E-2,3.702632368E-2,1.750842015E-1,1.812120894E-1
4.413406292E0,-5.775733441E-2,2.779707849E-2,1.812565224E-1,1.922563761E-1
4.423348292E0,-6.556804508E-2,-1.512908578E-2,1.786299531E-1,1.908840431E-1
4.433289292E0,-6.529483393E-2,-6.790722370E-2,1.574982619E-1,1.835225024E-1
4.443231292E0,-2.140534088E-2,-9.449685216E-2,1.152463547E-1,1.505641590E-1
4.453173292E0,2.676694527E-2,-1.154509342E-1,8.107047558E-2,1.435890301E-1
4.463114292E0,8.133316174E-2,-1.333153474E-1,7.859827280E-2,1.748306425E-1
4.473056292E0,1.669814225E-1,-1.611901939E-1,8.489930548E-2,2.471294522E-1
4.482998292E0,2.489965157E-1,-2.000829488E-1,7.605480708E-2,3.283546633E-1
4.492939292E0,3.351096301E-1,-2.331407672E-1,1.095965557E-1,4.226872207E-1
4.502881292E0,4.003012607E-1,-2.974320728E-1,2.020189619E-1,5.380693247E-1
4.512823292E0,5.041428405E-1,-3.361792320E-1,3.595091108E-1,7.045731193E-1
4.522764292E0,5.483404818E-1,-2.231911451E-1,4.981710792E-1,7.737350938E-1
4.532706292E0,5.167829128E-1,-7.472332299E-2,6.667134158E-1,8.468500061E-1
4.542648292E0,5.372753571E-1,-1.147428364E-1,8.020415942E-1,9.721632819E-1
4.552589292E0,5.762422255E-1,-3.665900159E-1,9.496848857E-1,1.169762679E0
4.562531292E0,4.925020574E-1,-8.048183638E-1,1.211150150E0,1.535309598E0
4.572473292E0,1.897246063E-1,-1.099105804E0,1.547362711E0,1.907448651E0
4.582414292E0,-2.370154247E-1,-1.184286872E0,1.685672604E0,2.073693284E0
4.592356292E0,-5.314665869E-1,-7.517420179E-1,1.424983850E0,1.696511647E0
4.602298292E0,-5.756604275E-1,-1.745545900E-1,9.929390788E-1,1.160940243E0
4.612239292E0,-3.327926709E-1,4.190600055E-1,4.227722566E-1,6.819814008E-1
4.622181292E0,-1.350249271E-1,1.097278549E0,-5.162623644E-2,1.106759781E0
4.632123292E0,-1.438387276E-1,1.409294747E0,-4.811311233E-1,1.496091047E0
4.642064292E0,-1.519632876E-1,1.299437259E0,-7.918872464E-1,1.529285926E0
4.652006292E0,-1.199965596E-1,1.060962077E0,-8.170735431E-1,1.344488333E0
4.661948292E0,-1.849351519E-1,9.139467037E-1,-5.469462132E-1,1.081041048E0
4.671889292E0,-1.172840363E-1,7.108389902E-1,-2.506922083E-1,7.628198991E-1
4.681831292E0,1.752619569E-1,5.557474422E-1,-1.788732704E-1,6.095634667E-1
4.691773292E0,4.848603313E-1,3.923177648E-1,-2.120937145E-1,6.587765274E-1
4.701714292E0,7.299953458E-1,2.645549333E-1,-2.079353209E-1,8.038156600E-1
4.711656292E0,7.694302838E-1,2.885606772E-1,-1.459826092E-1,8.346263524E-1
4.721598292E0,6.837317370E-1,3.391496176E-1,-7.859235249E-2,7.672602617E-1
4.731539292E0,4.773818886E-1,2.638404036E-1,8.720435098E-2,5.523674728E-1
4.741481292E0,2.024827923E-1,1.414763063E-1,2.267855747E-1,3.353304688E-1
4.751423292E0,1.126729220E-2,2.007583022E-2,2.524746589E-1,2.535220783E-1
4.761364292E0,-1.072550382E-1,-2.014131904E-2,2.470797984E-1,2.701069098E-1
4.771306292E0,-2.641429970E-1,-5.767868936E-2,2.687019248E-1,3.811811623E-1
4.781248292E0,-3.709827366E-1,-3.559784889E-2,2.916755620E-1,4.732547213E-1
4.791189292E0,-4.078001685E-1,9.654103875E-2,2.660638073E-1,4.963981257E-1
4.801131292E0,-3.160076536E-1,3.296063769E-1,2.817750565E-1,5.365616305E-1
4.811073292E0,-2.354552414E-1,6.339428419E-1,3.694481349E-1,7.705936814E-1
4.821014292E0,-3.041030149E-1,8.230558294E-1,5.426286292E-1,1.031671155E0
4.830956292E0,-4.139156252E-1,8.485719091E-1,6.830343103E-1,1.165305238E0
4.840898292E0,-4.569511324E-1,8.679074818E-1,8.065905087E-1,1.269903927E0
4.850839292E0,-5.959189832E-1,9.388459021E-1,8.763983698E-1,1.415847861E0
4.860781292E0,-7.664768551E-1,9.345715874E-1,8.134988478E-1,1.456945846E0
4.870723292E0,-8.554078889E-1,8.115964562E-1,7.359318776E-1,1.389966616E0
4.880664292E0,-8.900223823E-1,4.802517021E-1,6.833360267E-1,1.220544822E0
4.890606292E0,-1.096782120E0,3.911611855E-2,6.085012411E-1,1.254884397E0
4.900548292E0,-1.445970238E0,-4.252305722E-1,4.274585807E-1,1.566643484E0
4.910489292E0,-1.919588712E0,-8.407851720E-1,2.613906395E-1,2.111886738E0
4.920431292E0,-2.416403237E0,-1.142298017E0,8.930459775E-2,2.674289565E0
4.930373292E0,-2.787869100E0,-1.183377630E0,3.984175801E-2,3.028891563E0
4.940314292E0,-3.098896827E0,-9.508888274E-1,8.274994209E-2,3.242560509E0
4.950256292E0,-3.291038087E0,-6.242586833E-1,2.483313949E-1,3.358913377E0
4.960198292E0,-3.109345801E0,-4.408157408E-1,4.246680701E-1,3.169020795E0
4.970139292E0,-2.594707793E0,-4.067346597E-1,5.411210708E-1,2.681558060E0
4.980081292E0,-1.663071654E0,-2.987488657E-1,5.945904958E-1,1.791255445E0
4.990023292E0,-8.462033482E-1,1.062719750E-1,8.013610514E-1,1.170270641E0
4.999964292E0,-1.595040031E-1,5.205343401E-1,1.167361668E0,1.288072510E0
5.009906292E0,5.258626154E-1,6.629906398E-1,1.501404912E0,1.723457220E0
5.019848292E0,1.167178796E0,8.520170885E-1,1.745501461E0,2.266057107E0
5.029789292E0,1.408265783E0,1.155524418E0,2.063868320E0,2.752817037E0
5.039731292E0,1.238431797E0,1.335662515E0,2.362960563E0,2.983503024E0
5.049673292E0,1.277952689E0,1.417687840E0,1.617770205E0,2.502035636E0
5.059614292E0,9.225441572E-1,1.303689939E0,7.145589888E-1,1.749654174E0
5.069556292E0,2.721691775E-1,1.161380405E0,6.850387359E-1,1.375557551E0
5.079498292E0,4.123281062E-2,9.733520758E-1,5.931547120E-1,1.140590602E0
5.089439292E0,-2.556956707E-1,8.284574872E-1,8.007701902E-1,1.180235138E0
5.099381292E0,-3.913947818E-1,6.095973748E-1,7.742206152E-1,1.060290713E0
5.109323292E0,-3.283591658E-1,1.929756582E-1,6.152744365E-1,7.236172874E-1
5.119264292E0,-3.614009044E-1,-3.399980485E-2,7.902384777E-1,8.696225918E-1
5.129206292E0,-4.366275264E-1,-1.586349607E-3,1.185330015E0,1.263191735E0
5.139148292E0,-4.954376520E-1,4.493117452E-2,1.467102368E0,1.549150294E0
5.149089292E0,-7.096256930E-1,6.546776533E-2,1.675231670E0,1.820509764E0
5.159031292E0,-8.551994357E-1,8.719017148E-2,1.892219796E0,2.078332013E0
5.168973292E0,-1.064049553E0,3.523882985E-2,1.936389371E0,2.209761757E0
5.178914292E0,-1.443532534E0,1.516738504E-1,1.851551973E0,2.352665688E0
5.188856292E0,-1.653133142E0,2.710640538E-1,1.689096588E0,2.378943502E0
5.198798292E0,-1.517458150E0,1.895988911E-1,1.462868399E0,2.116272886E0
5.208739292E0,-1.142138826E0,-2.753161490E-2,1.369539820E0,1.783501726E0
5.218681292E0,-8.526588205E-1,-2.562559801E-1,1.449870915E0,1.701417016E0
5.228623292E0,-5.237525745E-1,-3.970937705E-1,1.529375653E0,1.664629121E0
5.238564292E0,-3.231875959E-1,-5.303722805E-1,1.893701481E0,1.992950144E0
5.248506292E0,-3.964040914E-1,-4.753686923E-1,2.768481195E0,2.836829167E0
5.258448292E0,-6.696582198E-1,-2.221456629E-1,3.708374333E0,3.774894836E0
5.268389292E0,-1.376630446E0,1.875026643E-2,4.318968366E0,4.533095047E0
5.278333083E0,-2.608839929E0,8.061205387E-2,4.484459772E0,5.188730434E0
5.288275083E0,-3.933676031E0,-5.352950513E-2,4.115099638E0,5.693041151E0
5.298216083E0,-5.006567890E0,-2.741712642E-1,3.274100165E0,5.988374054E0
5.308158083E0,-5.673403659E0,-2.778123254E-1,2.480896710E0,6.198349559E0
5.318100083E0,-5.887108866E0,-2.899593312E-1,2.083879831E0,6.251774337E0
5.328041083E0,-5.603105509E0,-5.882731640E-1,1.960654731E0,5.965318402E0
5.337983083E0,-4.995951101E0,-1.124434188E0,1.908417461E0,5.464973636E0
5.347925083E0,-4.433640159E0,-1.712049540E0,2.012359320E0,5.161188692E0
5.357866083E0,-3.401941057E0,-2.137409921E0,1.982456075E0,4.480162521E0
5.367808083E0,-2.536688211E0,-2.633813971E0,1.919942323E0,4.130126104E0
5.377750083E0,-2.109801123E0,-3.134426263E0,1.910439428E0,4.233871465E0
5.387691083E0,-2.088567836E0,-3.726805342E0,1.709646042E0,4.601530534E0
5.397633083E0,-2.309046165E0,-4.185711198E0,1.432372684E0,4.990347076E0
5.407575083E0,-2.574634302E0,-4.356950417E0,1.314313892E0,5.228688146E0
5.417516083E0,-2.379582005E0,-4.195262040E0,1.216864049E0,4.974273034E0
5.427458083E0,-1.999031177E0,-3.969879944E0,1.198716631E0,4.603584905E0
5.437400083E0,-1.638669469E0,-3.900948873E0,1.331897346E0,4.435830280E0
5.447341083E0,-1.566801634E0,-3.518871921E0,1.489967612E0,4.130052111E0
5.457283083E0,-6.175226909E-1,-2.661676539E0,1.273835957E0,3.014716291E0
5.467225083E0,7.336280747E-1,-1.843944599E0,7.277305730E-1,2.113748713E0
5.477166083E0,1.693464019E0,-1.248975788E0,2.576677904E-1,2.119941885E0
5.487108083E0,2.622365123E0,-6.464108598E-1,2.012822127E-1,2.708350119E0
5.497050083E0,3.245925649E0,-1.099165446E-1,5.686979286E-1,3.297200676E0
5.506991083E0,3.624232023E0,3.074009907E-1,1.084463207E0,3.795472773E0
5.516933083E0,3.806029851E0,4.319320661E-1,1.401673486E0,4.078862231E0
5.526875083E0,3.779154879E0,3.921318233E-1,1.197330256E0,3.983638878E0
5.536816083E0,3.599284293E0,8.627625167E-2,8.519171011E-1,3.699736985E0
5.546758083E0,3.290493419E0,-1.415996826E-1,4.272454862E-1,3.321134763E0
5.556700083E0,3.149871098E0,-5.877094924E-2,-2.744887680E-1,3.162354510E0
5.566641083E0,3.064818377E0,3.066437763E-1,-1.248469419E0,3.323524933E0
5.576583083E0,2.745307802E0,7.751601166E-1,-1.532684592E0,3.238319038E0
5.586525083E0,2.035207754E0,8.664111793E-1,-1.430700380E0,2.634320123E0
5.596466083E0,1.317180782E0,3.041043305E-1,-1.749467627E0,2.210900639E0
5.606408083E0,8.081749579E-1,-5.764144260E-1,-2.052725281E0,2.280149432E0
5.616350083E0,3.860483801E-1,-1.412711275E0,-1.837530203E0,2.349745464E0
5.626291083E0,-3.233902019E-1,-2.211000638E0,-1.800723735E0,2.869792852E0
5.636233083E0,-1.361038846E0,-2.632971388E0,-2.047501963E0,3.602392171E0
5.646175083E0,-1.727312527E0,-2.981194714E0,-2.023999372E0,3.995960955E0
5.656116083E0,-2.061342030E0,-3.197024215E0,-2.346023519E0,4.469219299E0
5.666058083E0,-3.034369293E0,-3.321162942E0,-1.008681538E0,4.610310048E0
5.676000083E0,-3.575352224E0,-3.294824159E0,1.113175374E-1,4.863270644E0
5.685941083E0,-3.579133033E0,-2.889144922E0,-6.246671113E-1,4.641935011E0
5.695883083E0,-2.626276618E0,-2.006173843E0,-2.147458361E0,3.941273877E0
5.705825083E0,-1.394515032E0,-9.799693698E-1,-2.963442568E0,3.418626039E0
5.715766083E0,-5.210740381E-1,-5.713957608E-2,-3.064407902E0,3.108919245E0
5.725708083E0,1.729971841E-1,7.925865734E-1,-2.953545570E0,3.062932082E0
5.735650083E0,6.598651569E-1,1.573568178E0,-2.875579674E0,3.343725063E0
5.745591083E0,9.041102251E-1,2.212237324E0,-3.014605120E0,3.846979764E0
5.755533083E0,1.105536864E0,2.988698446E0,-3.215699929E0,4.527168673E0
5.765475083E0,1.304515859E0,3.594697444E0,-3.312935617E0,5.059560628E0
5.775416083E0,1.393416487E0,3.903561409E0,-3.295642769E0,5.295343468E0
5.785358083E0,1.443286512E0,3.921288412E0,-3.013535079E0,5.151793129E0
5.795300083E0,1.548029733E0,3.973107607E0,-2.914324787E0,5.164810652E0
5.805241083E0,1.675262075E0,4.148794802E0,-2.885369375E0,5.323941938E0
5.815183083E0,1.780187583E0,4.347967340E0,-2.891731730E0,5.516883198E0
5.825125083E0,1.872882762E0,4.536065835E0,-2.870393486E0,5.685309303E0
5.835066083E0,1.940935581E0,4.728965480E0,-2.725873704E0,5.793162598E0
5.845008083E0,1.946436203E0,4.938284690E0,-2.605031052E0,5.912821354E0
5.854950083E0,1.948453639E0,5.055627784E0,-2.526310865E0,5.978134362E0
5.864891083E0,1.875349702E0,4.943882815E0,-2.488225611E0,5.843815575E0
5.874833083E0,1.799727808E0,4.613650786E0,-2.181906062E0,5.411608617E0
5.884775083E0,1.698857491E0,4.272395001E0,-1.622912246E0,4.875789165E0
5.894716083E0,1.366912374E0,3.860417143E0,-9.823018241E-1,4.211435246E0
5.904658083E0,1.070211569E0,3.392810630E0,-1.120604262E-1,3.559364312E0
5.914599083E0,7.219180021E-1,2.970339943E0,8.444616088E-1,3.171308939E0
5.924541083E0,2.394575143E-1,2.385489154E0,1.848442862E0,3.027315547E0
5.934483083E0,2.883499581E-2,1.619654762E0,2.959584282E0,3.373907546E0
5.944424083E0,-1.190637825E-1,6.128805864E-1,4.560222437E0,4.602763026E0
5.954366083E0,-3.079377651E-1,-7.501352030E-1,6.289813625E0,6.341867542E0
5.964308083E0,-1.046657888E0,-2.396624592E0,7.808512115E0,8.234814122E0
5.974249083E0,-2.581464434E0,-4.449059851E0,8.613086650E0,1.003211612E1
5.984191083E0,-4.725515915E0,-6.562447071E0,8.728855673E0,1.189912323E1
5.994133083E0,-6.370525666E0,-7.743893951E0,8.173614015E0,1.293674831E1
6.004074083E0,-5.098995413E0,-6.871239699E0,7.100423656E0,1.111888957E1
6.014016083E0,-3.652463842E0,-4.496963165E0,5.944706864E0,8.300765599E0
6.023958083E0,-2.375377126E0,-2.470932178E0,4.297917220E0,5.497273392E0
6.033899083E0,-7.149799883E-1,-1.317282377E0,2.540414057E0,2.949598756E0
6.043841083E0,9.425097674E-1,-1.236265111E0,7.752063096E-1,1.737130078E0
6.053783083E0,2.854949820E0,-1.541492107E0,-1.928953467E0,3.774625527E0
6.063724083E0,4.543116700E0,-1.806849863E0,-4.234048376E0,6.467749333E0
6.073666083E0,6.012124676E0,-1.996517166E0,-5.812260413E0,8.597330691E0
6.083608083E0,7.154158398E0,-2.472312706E0,-5.725626896E0,9.490896472E0
6.093549083E0,7.777240037E0,-3.881509219E0,-4.752529759E0,9.906468368E0
6.103491083E0,8.420289917E0,-5.265572062E0,-3.976706568E0,1.069774399E1
6.113433083E0,7.669648930E0,-5.343114912E0,-2.969017303E0,9.807520350E0
6.123374083E0,7.759713008E0,-3.864838223E0,1.726747102E0,8.839218065E0
6.133316083E0,6.147357910E0,-6.350134671E-2,8.972523183E-1,6.212817671E0
6.143258083E0,4.763471069E0,2.965071602E0,-3.834087716E0,6.795773307E0
6.153199083E0,3.854233420E0,3.636631336E0,-5.538743452E0,7.665368990E0
6.163141083E0,1.800309752E0,3.040353919E0,-4.750613042E0,5.920573572E0
6.173083083E0,3.001975499E-1,2.171400955E0,-4.142479225E0,4.686708312E0
6.183024083E0,-4.458519111E-1,1.453816617E0,-4.921877403E0,5.151431243E0
6.192966083E0,-1.469937098E0,1.406593333E0,-5.916696947E0,6.256718200E0
6.202908083E0,-2.858025455E0,1.186731593E0,-6.127035912E0,6.864197727E0
6.212849083E0,-3.169956869E0,1.217773291E0,-5.955138881E0,6.855310163E0
6.222791083E0,-3.406895403E0,1.003785664E0,-5.682561568E0,6.701196007E0
6.232733083E0,-3.169099375E0,7.066716796E-1,-4.811022381E0,5.804180567E0
6.242674083E0,-2.413317516E0,3.617461824E-1,-3.165947433E0,3.997272180E0
6.252616083E0,-2.110775269E0,2.199137807E-2,-1.996383265E0,2.905409093E0
6.262558083E0,-2.534258693E0,-3.386221987E-1,-6.031425603E-1,2.626958900E0
6.272499083E0,-3.045928654E0,-6.134021580E-1,1.127662436E0,3.305384417E0
6.282438667E0,-4.097026771E0,-5.340840930E-1,2.316363956E0,4.736709423E0
6.292380667E0,-4.810458124E0,-1.009229422E-2,2.911981223E0,5.623188051E0
6.302321667E0,-3.982131907E0,4.523183835E-1,3.486058517E0,5.311738927E0
6.312263667E0,-8.931101507E-1,4.107785940E-1,5.222925979E0,5.314634567E0
6.322205667E0,1.785670225E0,3.985760397E-1,5.453570570E0,5.752296321E0
6.332146667E0,2.360179189E0,7.077920061E-1,2.873666757E0,3.785416220E0
6.342088667E0,2.615303148E0,1.060875539E0,1.234931946E-2,2.822307562E0
6.352029667E0,2.364027680E0,8.567966026E-1,-9.806716204E-1,2.698970937E0
6.361971667E0,1.705434147E0,9.299745065E-1,-6.889142704E-1,2.061058244E0
6.371913667E0,1.308982693E0,1.202285771E0,-6.554670274E-1,1.894350493E0
6.381854667E0,6.454112783E-1,1.262505661E0,-1.061467277E0,1.771211179E0
6.391796667E0,-1.095953862E-1,1.191818671E0,-1.616121290E0,2.011042246E0
6.401738667E0,-5.793226849E-1,9.854938191E-1,-2.019058768E0,2.320217909E0
6.411679667E0,-1.072834995E0,6.374616963E-1,-2.073297540E0,2.419895665E0
6.421621667E0,-1.332885964E0,5.098403674E-1,-1.476362311E0,2.053330920E0
6.431563667E0,-1.452389896E0,5.976737326E-1,-5.300664711E-1,1.657594873E0
6.441504667E0,-1.690553275E0,7.106302446E-1,4.625136618E-1,1.891265346E0
6.451446667E0,-1.754025093E0,8.825722986E-1,1.505755094E0,2.474436561E0
6.461388667E0,-1.857861118E0,9.386792564E-1,2.240354684E0,3.058096760E0
6.471329667E0,-1.652709949E0,8.588144767E-1,2.671618559E0,3.256771132E0
6.481271667E0,-1.127447258E0,8.179278213E-1,2.812810106E0,3.138796574E0
6.491213667E0,-7.143088742E-1,7.146806109E-1,2.826968554E0,3.002125372E0
6.501154667E0,-4.664367780E-1,6.094827694E-1,2.665664924E0,2.773950613E0
6.511096667E0,-3.637897843E-1,5.510182142E-1,2.714629508E0,2.793774767E0
6.521038667E0,-4.778911811E-1,4.312906265E-1,2.959124984E0,3.028334898E0
6.530979667E0,-7.058159396E-1,2.792793918E-1,3.104027174E0,3.195490230E0
6.540921667E0,-1.109975924E0,1.455395365E-1,3.111221588E0,3.306497857E0
6.550863667E0,-1.485797963E0,8.195866764E-2,3.089857031E0,3.429508606E0
6.560804667E0,-1.645088250E0,2.216609287E-1,3.009850749E0,3.437244601E0
6.570746667E0,-2.019356829E0,3.691125047E-1,2.887815850E0,3.543095600E0
6.580688667E0,-2.544827243E0,6.200732464E-1,2.773194051E0,3.814608993E0
6.590629667E0,-3.282350294E0,7.416678500E-1,2.591601752E0,4.247386761E0
6.600571667E0,-3.786278542E0,6.776116025E-1,2.357377350E0,4.511351311E0
6.610512667E0,-4.131072184E0,4.240365708E-1,1.988737446E0,4.604415385E0
6.620454667E0,-4.271483420E0,3.483899724E-1,1.342194585E0,4.490927798E0
6.630396667E0,-4.506864256E0,5.471882880E-2,1.131197516E0,4.646980459E0
6.640337667E0,-4.782444114E0,-1.835400063E-1,1.362894606E0,4.976237569E0
6.650279667E0,-4.955768450E0,-2.267158467E-1,1.296122034E0,5.127472412E0
6.660221667E0,-5.287825395E0,-7.300956255E-1,1.361128893E0,5.508793778E0
6.670162667E0,-5.331750848E0,-1.386818635E0,1.247526848E0,5.648641985E0
6.680104667E0,-4.724306418E0,-1.707389309E0,1.132236128E0,5.149389094E0
6.690046667E0,-4.330195897E0,-2.408344166E0,1.463942678E0,5.166608781E0
6.699987667E0,-3.289861042E0,-3.030951596E0,2.033991387E0,4.913957083E0
6.709929667E0,-2.183886953E0,-3.962393169E0,2.845304253E0,5.344686908E0
6.719871667E0,-1.009458048E0,-5.123543778E0,3.986962584E0,6.570051525E0
6.729812667E0,-1.365545587E-1,-5.425422658E0,4.749232514E0,7.211731251E0
6.739754667E0,2.713488132E-2,-5.038831072E0,4.519884835E0,6.769040833E0
6.749696667E0,-8.831790935E-1,-4.477278514E0,4.112388868E0,6.143107553E0
6.759637667E0,-2.000892930E0,-4.227554458E0,4.574001986E0,6.541963267E0
6.769579667E0,-1.664545006E0,-3.825931435E0,3.174834616E0,5.242903419E0
6.779521667E0,-1.206983571E0,-3.387537026E0,1.222627065E0,3.798293483E0
6.789462667E0,-8.078733878E-1,-3.169534700E0,-6.875074303E-1,3.342345896E0
6.799404667E0,4.675154431E-1,-3.075964047E0,-2.105213982E0,3.756601046E0
6.809346667E0,1.716098152E0,-3.455193404E0,-2.901663811E0,4.827318841E0
6.819287667E0,3.025176301E0,-3.704497045E0,-3.583447986E0,5.976293958E0
6.829229667E0,4.111052195E0,-3.791194296E0,-3.634723390E0,6.669716520E0
6.839171667E0,5.093076276E0,-3.032171325E0,-3.111881154E0,6.694571922E0
6.849112667E0,5.466583548E0,-1.776885222E0,-2.041722575E0,6.099958021E0
6.859054667E0,5.079301406E0,-4.504730022E-1,-1.390326526E0,5.285379508E0
6.868996667E0,4.277349639E0,9.044034630E-1,-1.149869722E0,4.520604599E0
6.878937667E0,3.461732638E0,1.661543046E0,-1.831016990E0,4.254049995E0
6.888879667E0,2.241763132E0,1.764364579E0,-2.481239357E0,3.780877286E0
6.898820667E0,4.326229512E-1,1.406044280E0,-3.788220110E0,4.063832518E0
6.908762667E0,-1.386226897E0,4.851516688E-1,-5.524739955E0,5.716620393E0
6.918704667E0,-2.064022102E0,-5.081587082E-1,-3.220168664E0,3.858483994E0
6.928645667E0,-3.200023544E0,-1.573336043E0,-3.578519368E-1,3.583796171E0
6.938587667E0,-5.093601941E0,-3.120460188E0,1.835633951E0,6.249128301E0
6.948529667E0,-5.797073439E0,-4.367385358E0,9.014459413E-1,7.313871759E0
6.958470667E0,-5.359885896E0,-4.332522504E0,-2.541608643E0,7.345672370E0
6.968412667E0,-4.348272272E0,-3.637113732E0,-5.164509956E0,7.668652498E0
6.978354667E0,-2.543928526E0,-1.928267296E0,-5.881562782E0,6.691977874E0
6.988295667E0,-9.547988605E-1,-6.531105995E-2,-5.507383080E0,5.589917244E0
6.998237667E0,4.683093488E-2,1.349608709E0,-5.019268042E0,5.197758025E0
7.008179667E0,8.184232266E-1,2.473932384E0,-4.670117347E0,5.347911186E0
7.018120667E0,1.542939293E0,3.286732782E0,-4.244668089E0,5.585739094E0
7.028062667E0,2.158119589E0,3.985400208E0,-3.664879235E0,5.828570561E0
7.038004667E0,2.581151901E0,4.584028791E0,-3.164302611E0,6.139094079E0
7.047945667E0,2.905503969E0,4.998147900E0,-2.941104157E0,6.486411135E0
7.057887667E0,3.333069043E0,5.266302963E0,-3.062647013E0,6.944285627E0
7.067829667E0,3.665327132E0,5.497681965E0,-3.253506564E0,7.365082140E0
7.077770667E0,3.944379067E0,5.691010795E0,-3.301994015E0,7.671303316E0
7.087712667E0,3.835623195E0,5.773675221E0,-3.423905830E0,7.731135879E0
7.097653667E0,3.479816029E0,5.507467865E0,-3.622028500E0,7.453885720E0
7.107595667E0,3.105277893E0,4.953663452E0,-3.930878431E0,7.045093160E0
7.117537667E0,2.554832998E0,4.363657174E0,-4.270411626E0,6.618541458E0
7.127478667E0,1.929676475E0,4.023674912E0,-4.426023576E0,6.285164739E0
7.137420667E0,1.315486112E0,3.958280237E0,-4.254468023E0,5.958102408E0
7.147362667E0,8.660169308E-1,3.979989780E0,-3.643651211E0,5.465024988E0
7.157303667E0,7.057134672E-1,4.118107445E0,-2.545973005E0,4.892731238E0
7.167245667E0,7.672578970E-1,4.141079401E0,-1.304922240E0,4.409086679E0
7.177187667E0,8.629499200E-1,3.647477921E0,-2.346569502E-1,3.755508173E0
7.187128667E0,6.735224985E-1,2.931231426E0,8.802989012E-1,3.133795843E0
7.197070667E0,3.958965531E-1,1.831399983E0,2.243986536E0,2.923394525E0
7.207012667E0,2.597226481E-1,2.354334605E-1,4.148826377E0,4.163609621E0
7.216953667E0,1.946057157E-1,-1.940549957E0,6.647795954E0,6.927972039E0
7.226895667E0,-1.774217722E-1,-4.948721970E0,8.854446849E0,1.014507549E1
7.236837667E0,-1.552471862E0,-8.371565654E0,1.040132892E1,1.344176044E1
7.246778667E0,-4.144176087E0,-1.078018756E1,1.197637937E1,1.663791760E1
7.256720667E0,-6.082598827E0,-1.112751100E1,1.203147066E1,1.748072641E1
7.266662667E0,-5.186882572E0,-8.618498248E0,9.255502108E0,1.366918367E1
7.276603667E0,-3.789755296E0,-4.845857168E0,6.077891818E0,8.647852095E0
7.286546042E0,-3.151856228E0,-1.972835943E0,3.524817370E0,5.123535579E0
7.296488042E0,-2.567839837E0,-4.192985719E-1,1.292307165E0,2.905111104E0
7.306429042E0,-9.507777303E-1,6.334347188E-2,-5.779724166E-1,1.114469740E0
7.316371042E0,1.395510667E0,5.884649527E-1,-2.732499769E0,3.124147245E0
7.326312042E0,3.612906259E0,1.091888001E0,-4.437768293E0,5.825727291E0
7.336254042E0,5.289759069E0,7.058951694E-1,-5.146121047E0,7.413663118E0
7.346196042E0,6.312469831E0,-7.523787796E-2,-5.743439854E0,8.534637512E0
7.356137042E0,7.173930758E0,-1.375024216E0,-5.727285166E0,9.282120958E0
7.366079042E0,7.803151973E0,-3.033633714E0,-4.581305743E0,9.543609198E0
7.376021042E0,8.233766661E0,-4.664712181E0,-3.316686898E0,1.002770488E1
7.385962042E0,7.866065674E0,-6.639725043E0,-1.707481257E0,1.043438690E1
7.395904042E0,5.818285968E0,-8.398703751E0,4.719947319E0,1.125471363E1
7.405846042E0,2.396325215E0,-3.982632136E0,2.551258303E0,5.302136569E0
7.415787042E0,2.850325842E0,1.627110547E0,-1.688208249E0,3.690784907E0
7.425729042E0,3.323524925E0,3.135053084E0,-2.715979630E0,5.315159557E0
7.435671042E0,1.152780028E0,3.443669127E0,-3.130640191E0,4.794649815E0
7.445612042E0,-8.442902854E-1,3.098837770E0,-4.920412091E0,5.875889444E0
7.455554042E0,-1.324956555E0,2.799198373E0,-6.379663110E0,7.091623425E0
7.465496042E0,-1.786985702E0,3.022025821E0,-8.441904734E0,9.142850404E0
7.475437042E0,-2.249223887E0,3.204300490E0,-8.025414580E0,8.929380096E0
7.485379042E0,-3.349876572E0,3.198462630E0,-5.924349198E0,7.519956759E0
7.495320042E0,-4.227363547E0,2.404881445E0,-5.307767324E0,7.199059056E0
7.505262042E0,-4.190865227E0,1.874262997E0,-5.099721052E0,6.861732138E0
7.515204042E0,-4.215478496E0,1.471804991E0,-4.338397787E0,6.225605532E0
7.525145042E0,-3.925407191E0,8.948239696E-1,-3.578530478E0,5.386595579E0
7.535087042E0,-3.853536432E0,2.516817033E-2,-3.229904863E0,5.028186740E0
7.545029042E0,-3.705847459E0,-7.454182541E-1,-2.901046345E0,4.764978873E0
7.554970042E0,-3.247250920E0,-9.557823622E-1,-1.793307127E0,3.830679954E0
7.564912042E0,-2.513380917E0,-7.605350608E-1,-8.407364208E-2,2.627273414E0
7.574854042E0,-1.615195091E0,-1.113974104E0,1.906194642E0,2.735575168E0
7.584795042E0,-9.247150822E-1,-1.479829710E0,4.764256350E0,5.073769064E0
7.594737042E0,9.319546661E-1,-1.126069654E0,1.253055625E1,1.261552267E1
7.604679042E0,2.280283858E0,4.267941177E-2,1.480586573E1,1.498049318E1
7.614620042E0,2.152332600E0,1.125567378E0,9.377390242E0,9.686840831E0
7.624562042E0,2.574054843E0,1.325544493E0,2.000725554E0,3.519336482E0
7.634504042E0,2.717461900E0,8.432971358E-1,-2.756972705E0,3.961899511E0
7.644445042E0,1.662362387E0,6.089272839E-1,-3.353916121E0,3.792491857E0
7.654387042E0,3.462374662E-1,1.129742875E0,-3.168123182E0,3.381302093E0
7.664328042E0,-4.005563454E-1,1.226817765E0,-3.123926418E0,3.380006432E0
7.674270042E0,-6.804390237E-1,1.006452579E0,-2.663928301E0,2.927876031E0
7.684212042E0,-7.212628216E-1,9.738601989E-1,-2.001842226E0,2.340084623E0
7.694153042E0,-5.622302502E-1,9.575447130E-1,-1.057225707E0,1.533206094E0
7.704095042E0,-4.124965060E-1,1.026481631E0,1.085863030E-1,1.111579458E0
7.714037042E0,-9.620577402E-1,1.264577329E0,1.106379813E0,1.936178506E0
7.723978042E0,-1.901706026E0,1.434495662E0,1.792768306E0,2.981322159E0
7.733920042E0,-2.471105255E0,1.446052684E0,2.190217587E0,3.604786072E0
7.743862042E0,-2.670982382E0,1.295403265E0,2.301115733E0,3.755975256E0
7.753803042E0,-2.541432349E0,1.166289142E0,2.141933327E0,3.522355338E0
7.763745042E0,-2.014860028E0,1.046167452E0,2.063068275E0,3.067633938E0
7.773687042E0,-1.402438594E0,8.632232773E-1,2.421708562E0,2.928593655E0
7.783628042E0,-8.752765815E-1,8.102352244E-1,2.612454093E0,2.871847245E0
7.793570042E0,-5.484799379E-1,5.663501984E-1,2.502086728E0,2.623360589E0
7.803511042E0,-4.544226502E-1,9.332565486E-2,2.599531746E0,2.640601242E0
7.813453042E0,-6.876205739E-1,-4.007710844E-1,2.957440985E0,3.062661702E0
7.823395042E0,-1.032745754E0,-7.005742031E-1,3.474747663E0,3.692050829E0
7.833336042E0,-1.328781804E0,-8.383767039E-1,3.978241754E0,4.277258940E0
7.843278042E0,-1.759359947E0,-7.494785607E-1,4.247756588E0,4.658379715E0
7.853220042E0,-2.558505634E0,-5.115711433E-1,3.857802268E0,4.657284021E0
7.863161042E0,-3.615710583E0,-3.283843088E-1,2.782901598E0,4.574466153E0
7.873103042E0,-4.728982729E0,-2.777912754E-1,1.346376368E0,4.924751259E0
7.883045042E0,-5.635493821E0,-2.087520307E-1,-9.434482455E-2,5.640147956E0
7.892986042E0,-5.963915552E0,-1.888878697E-1,-7.632053380E-1,6.015517411E0
7.902928042E0,-5.711687719E0,-3.508481419E-1,-8.132284141E-1,5.779949089E0
7.912870042E0,-4.884380086E0,-8.673139894E-1,-2.147379716E-1,4.965431983E0
7.922811042E0,-3.763130584E0,-1.867289023E0,1.073464740E0,4.335925119E0
7.932753042E0,-3.165173554E0,-3.471898899E0,2.759962971E0,5.448834848E0
7.942695042E0,-3.421431288E0,-4.719003578E0,4.206554768E0,7.188204912E0
7.952636042E0,-4.028111487E0,-5.063830258E0,4.975526776E0,8.162348053E0
7.962578042E0,-4.393914760E0,-4.789710449E0,4.971762339E0,8.183289917E0
7.972519042E0,-4.097025309E0,-4.058719615E0,4.485387433E0,7.305992179E0
7.982461042E0,-3.525448869E0,-3.352754279E0,4.027714461E0,6.316029985E0
7.992403042E0,-3.300492450E0,-3.142856194E0,3.372230769E0,5.669456396E0
8.002344042E0,-2.701462748E0,-2.917068300E0,2.270903023E0,4.578666726E0
8.012286042E0,-1.434854827E0,-2.476629705E0,8.952332016E-1,2.998990756E0
8.022228042E0,-7.503242142E-1,-2.173159212E0,-4.005693189E-1,2.333680177E0
8.032169042E0,6.184965447E-1,-2.248475443E0,-1.122532089E0,2.588099319E0
8.042111042E0,2.348278936E0,-3.066085176E0,-1.231714223E0,4.053691181E0
8.052053042E0,3.325896263E0,-3.953148136E0,-1.808837332E0,5.473651307E0
8.061994042E0,4.114624844E0,-4.407535264E0,-2.511237620E0,6.531678123E0
8.071936042E0,4.802529885E0,-4.303881673E0,-2.577387756E0,6.944826736E0
8.081878042E0,5.553795354E0,-3.686232097E0,-2.573232724E0,7.145241533E0
8.091819042E0,6.258003017E0,-2.699021536E0,-2.365814005E0,7.214180128E0
8.101761042E0,5.874350826E0,-1.403038226E0,-1.554792330E0,6.236496860E0
8.111702042E0,4.935272790E0,-2.281408131E-1,-8.345942862E-1,5.010540226E0
8.121644042E0,4.025453928E0,4.992498904E-1,-8.187458467E-1,4.138100354E0
8.131586042E0,2.304998723E0,4.729496992E-1,-1.299995376E0,2.688250083E0
8.141527042E0,3.399749886E-1,1.971885771E-1,-3.212417887E0,3.236370654E0
8.151469042E0,-1.347277424E0,-4.198055255E-1,-6.011817697E0,6.175220251E0
8.161411042E0,-1.874651837E0,-1.062611577E0,-3.874166286E0,4.433128386E0
8.171352042E0,-2.477795932E0,-1.438072988E0,-2.347560605E-1,2.874480302E0
8.181294042E0,-3.781216022E0,-1.736080427E0,1.603803253E0,4.459120399E0
8.191236042E0,-3.870187840E0,-1.893361173E0,1.716762981E-1,4.311918738E0
8.201177042E0,-3.636462644E0,-2.056726531E0,-4.091688848E0,5.847726243E0
8.211119042E0,-4.276438058E0,-2.251199661E0,-6.720045905E0,8.277369108E0
8.221061042E0,-3.193623474E0,-1.723175622E0,-6.134202259E0,7.127201588E0
8.231002042E0,-1.537361926E0,-4.901282340E-1,-5.517218097E0,5.748339143E0
8.240944042E0,-6.758150455E-1,1.031039536E0,-4.860859369E0,5.014750473E0
8.250885042E0,2.083953506E-1,2.563076695E0,-3.909743377E0,4.679624349E0
8.260827042E0,6.367790338E-1,3.666656789E0,-3.008891221E0,4.785737761E0
8.270769042E0,1.033120122E0,4.284983472E0,-2.556343042E0,5.095420521E0
8.280709292E0,1.549510978E0,4.678623877E0,-2.690107748E0,5.614907421E0
8.290651292E0,2.077900176E0,4.909897628E0,-3.284403836E0,6.261954361E0
8.300593292E0,2.662663549E0,5.200480857E0,-3.781143809E0,6.959297868E0
8.310534292E0,3.073070844E0,5.487329469E0,-4.147209038E0,7.533517898E0
8.320476292E0,3.278546095E0,5.652296380E0,-4.484524968E0,7.925167699E0
8.330418292E0,3.333692356E0,5.726812127E0,-4.757280914E0,8.157303694E0
8.340359292E0,3.273852243E0,5.735337367E0,-4.840221621E0,8.187792655E0
8.350301292E0,2.908884537E0,5.618864340E0,-4.932066177E0,8.022376362E0
8.360243292E0,2.365954923E0,5.410289479E0,-5.033804221E0,7.759391721E0
8.370184292E0,1.913362597E0,5.185723654E0,-4.775574805E0,7.304710875E0
8.380126292E0,1.613654349E0,4.992346877E0,-4.119384769E0,6.670587574E0
8.390067292E0,1.553758250E0,4.812806951E0,-3.202655084E0,5.986173655E0
8.400009292E0,1.766744542E0,4.464370785E0,-2.162516695E0,5.265783061E0
8.409951292E0,1.951654989E0,3.920752223E0,-8.272658247E-1,4.457086933E0
8.419892292E0,1.742149252E0,3.203626306E0,6.564397117E-1,3.705296023E0
8.429834292E0,1.462750870E0,2.089771485E0,2.425342315E0,3.519811119E0
8.439776292E0,1.149005211E0,1.697733217E-1,4.634030963E0,4.777371550E0
8.449717292E0,3.744546671E-1,-2.314314507E0,7.539401032E0,7.895494655E0
8.459659292E0,-2.901874091E-1,-5.134557593E0,9.733557011E0,1.100863400E1
8.469601292E0,-1.253907476E0,-8.188377650E0,1.122449058E1,1.395030470E1
8.479542292E0,-3.899650791E0,-1.132816406E1,1.377977645E1,1.825970471E1
8.489484292E0,-7.017549314E0,-1.295318364E1,1.395743123E1,2.029386241E1
8.499425292E0,-5.758466613E0,-9.809150984E0,9.484037608E0,1.480967083E1
8.509367292E0,-3.481741810E0,-5.335924591E0,5.669036958E0,8.528340829E0
8.519309292E0,-2.660444823E0,-2.549116468E0,2.954372659E0,4.722740648E0
8.529250292E0,-9.371154186E-1,-1.800599774E0,1.375059592E0,2.451761354E0
8.539192292E0,9.865075801E-1,-1.832928445E0,-1.554391649E-1,2.087339269E0
8.549134292E0,2.820809390E0,-1.739724997E0,-2.132414937E0,3.940913871E0
8.559075292E0,4.705381028E0,-1.519701873E0,-4.465199336E0,6.662440207E0
8.569017292E0,6.018796349E0,-1.364803868E0,-6.107394530E0,8.682676259E0
8.578959292E0,7.198130629E0,-1.556248140E0,-6.170250928E0,9.607652645E0
8.588900292E0,7.967880317E0,-2.269747614E0,-5.022537221E0,9.688382275E0
8.598842292E0,8.225746036E0,-3.544553477E0,-3.988434328E0,9.804813389E0
8.608784292E0,8.051568006E0,-4.702564716E0,-3.497292772E0,9.958560087E0
8.618725292E0,7.651194533E0,-4.323182162E0,-3.495698821E0,9.457832311E0
8.628667292E0,6.668544799E0,-8.556803691E-1,-2.383985835E-1,6.727444724E0
8.638608292E0,4.178593090E0,3.535792594E0,-9.459561163E-1,5.554934964E0
8.648550292E0,3.169106976E0,4.757342602E0,-2.485333285E0,6.233171680E0
8.658492292E0,2.327215511E0,4.627673578E0,-3.438702502E0,6.217392514E0
8.668433292E0,9.005080479E-1,3.435978284E0,-3.884815235E0,5.263900733E0
8.678375292E0,-6.600608924E-1,1.915408099E0,-4.736857759E0,5.151921001E0
8.688317292E0,-1.624353877E0,1.227148717E0,-5.384022617E0,5.756050646E0
8.698258292E0,-2.300571796E0,1.117327482E0,-6.248017727E0,6.751205582E0
8.708200292E0,-3.118283855E0,1.201142641E0,-7.501859568E0,8.212449989E0
8.718142292E0,-3.955694891E0,1.128907893E0,-7.104467005E0,8.209470539E0
8.728083292E0,-4.612479881E0,1.228783599E0,-6.414233603E0,7.995453239E0
8.738025292E0,-4.518970916E0,1.526746598E0,-5.565306768E0,7.329713005E0
8.747967292E0,-4.482907921E0,9.554747987E-1,-4.704466231E0,6.568211175E0
8.757908292E0,-4.408284585E0,1.590360796E-1,-3.823604243E0,5.837654911E0
8.767850292E0,-3.969228564E0,-2.712786466E-1,-2.977104587E0,4.969056170E0
8.777791292E0,-3.192411931E0,-8.651657224E-2,-2.066314795E0,3.803766014E0
8.787733292E0,-2.348076330E0,4.271765256E-1,-4.512816721E-1,2.428908681E0
8.797675292E0,-2.118909330E0,4.485165238E-2,1.269648619E0,2.470586173E0
8.807616292E0,-2.361719492E0,-6.927898049E-1,3.426723311E0,4.219017578E0
8.817558292E0,-1.056526087E0,-1.129756324E0,9.497487373E0,9.622622466E0
8.827500292E0,1.449903806E0,-5.633915073E-1,1.459748266E1,1.468012708E1
8.837441292E0,2.165231119E0,9.365368366E-1,1.084058579E1,1.109430608E1
8.847383292E0,2.702963728E0,1.484547828E0,5.270809997E0,6.106663017E0
8.857325292E0,3.191010646E0,1.268019585E0,1.090988699E0,3.602870932E0
8.867266292E0,2.626467530E0,9.471887094E-1,-1.112990675E0,3.005702310E0
8.877208292E0,1.209596837E0,9.214194453E-1,-2.471330373E0,2.901656788E0
8.887149292E0,2.627418579E-1,7.259686607E-1,-3.038886852E0,3.135426140E0
8.897091292E0,-5.533380970E-1,6.458097661E-1,-2.588026764E0,2.724176176E0
8.907033292E0,-1.505352367E0,6.650628930E-1,-2.532620888E0,3.020358085E0
8.916974292E0,-2.105412056E0,3.977755558E-1,-2.508740859E0,3.299206877E0
8.926916292E0,-2.282702558E0,3.499102485E-1,-1.861573370E0,2.966247387E0
8.936858292E0,-2.239953711E0,7.271457052E-1,-1.065191807E0,2.584717990E0
8.946799292E0,-2.424910936E0,1.100186369E0,-2.057320900E-1,2.670754348E0
8.956741292E0,-2.485539107E0,1.458432993E0,6.296163408E-1,2.949804771E0
8.966683292E0,-2.215683673E0,1.616786703E0,1.632265452E0,3.191793209E0
8.976624292E0,-1.745034122E0,1.728324096E0,2.541412761E0,3.534264717E0
8.986566292E0,-1.161062316E0,1.744578770E0,2.968817328E0,3.633936862E0
8.996507292E0,-5.948575674E-1,1.470541407E0,2.860179570E0,3.270622988E0
9.006449292E0,-7.269945547E-2,8.825804847E-1,2.772345035E0,2.910348865E0
9.016391292E0,2.905025375E-1,3.911529994E-1,2.745369490E0,2.788269361E0
9.026332292E0,2.340299094E-1,6.786804736E-2,2.678305435E0,2.689367226E0
9.036274292E0,-5.213976815E-2,-2.823842633E-1,2.881332749E0,2.895606645E0
9.046216292E0,-1.022328646E-1,-4.043028027E-1,3.065327669E0,3.093565263E0
9.056157292E0,-4.535796279E-1,-4.587012041E-1,3.247358801E0,3.310812658E0
9.066099292E0,-1.396250048E0,-3.965113878E-1,3.129290361E0,3.449520784E0
9.076041292E0,-2.336141870E0,-1.052978289E-1,2.791870058E0,3.641865578E0
9.085982292E0,-3.269151374E0,5.481296897E-2,2.379873781E0,4.044027001E0
9.095924292E0,-4.298401662E0,-1.551523590E-1,1.828173197E0,4.673601004E0
9.105865292E0,-5.072636749E0,-2.618944502E-1,1.012868436E0,5.179395212E0
9.115807292E0,-5.464599588E0,-2.429681826E-1,1.688687575E-1,5.472604394E0
9.125749292E0,-5.519791456E0,-3.127628875E-1,-8.957934380E-2,5.529370923E0
9.135690292E0,-5.462074175E0,-5.753666049E-1,1.209438086E-2,5.492308012E0
9.145632292E0,-4.786922497E0,-9.790688986E-1,3.457309511E-1,4.898237723E0
9.155574292E0,-3.939440801E0,-1.872356805E0,1.625294402E0,4.654728319E0
9.165515292E0,-2.897315236E0,-2.866947722E0,3.020227218E0,5.073026440E0
9.175457292E0,-2.317294248E0,-3.679370974E0,4.247438500E0,6.078516037E0
9.185399292E0,-2.456273501E0,-4.228536791E0,5.500299178E0,7.359829750E0
9.195340292E0,-3.229166359E0,-4.521407450E0,6.155360409E0,8.292110858E0
9.205282292E0,-4.440149864E0,-4.469107615E0,5.955688519E0,8.669375954E0
9.215223292E0,-5.062035747E0,-4.174203293E0,5.135602491E0,8.332022083E0
9.225165292E0,-5.114102279E0,-3.702287382E0,3.713439192E0,7.324657303E0
9.235107292E0,-4.888195102E0,-3.286987136E0,2.683601843E0,6.473056051E0
9.245048292E0,-4.026788555E0,-3.247127252E0,1.451559591E0,5.372698270E0
9.254990292E0,-2.420133176E0,-3.219947639E0,1.634320895E-1,4.031354293E0
9.264932292E0,-7.319521165E-1,-3.271777359E0,-7.818861687E-1,3.442619201E0
9.274873292E0,1.247337252E0,-3.834635600E0,-1.572157245E0,4.328043300E0
9.284816083E0,2.053088101E0,-4.741990737E0,-2.798890225E0,5.876685579E0
9.294758083E0,2.633343563E0,-4.662767397E0,-4.569550501E0,7.039651262E0
9.304699083E0,3.806057041E0,-4.238108683E0,-4.948064743E0,7.545262097E0
9.314641083E0,5.077169511E0,-3.845129598E0,-4.496624612E0,7.796300710E0
9.324582083E0,6.062909498E0,-3.101920422E0,-2.734111261E0,7.338674694E0
9.334524083E0,7.306126363E0,-2.347979266E0,4.095799148E-2,7.674253490E0
9.344466083E0,7.440369079E0,-1.525004128E0,2.072587688E0,7.872759958E0
9.354407083E0,5.692705902E0,-5.305816108E-1,2.073048449E0,6.081607288E0
9.364349083E0,4.031378619E0,1.633577567E-1,7.662799501E-1,4.106809502E0
9.374291083E0,2.815810020E0,6.180308139E-1,-6.637765056E-1,2.958267636E0
9.384232083E0,1.540110995E0,7.795507908E-1,-1.851315014E0,2.531206944E0
9.394174083E0,3.762808987E-1,6.140593851E-1,-1.777644775E0,1.917987797E0
9.404116083E0,-9.063002998E-1,9.223281026E-2,-2.016714619E0,2.212922271E0
9.414057083E0,-2.749151762E0,-5.987262315E-1,-3.026936313E0,4.132632569E0
9.423999083E0,-4.408308266E0,-1.290792736E0,-2.617195015E0,5.286684916E0
9.433940083E0,-5.719089124E0,-2.348656958E0,-3.134194129E0,6.931619057E0
9.443882083E0,-6.104244635E0,-3.224023733E0,-4.704935178E0,8.354193355E0
9.453824083E0,-5.521904640E0,-3.457729926E0,-5.723880917E0,8.672377982E0
9.463765083E0,-4.126057320E0,-2.771634598E0,-5.916370087E0,7.727207928E0
9.473707083E0,-2.602396882E0,-1.191125776E0,-5.815229044E0,6.481368604E0
9.483649083E0,-1.080688756E0,5.552071595E-1,-5.142081206E0,5.283667505E0
9.493590083E0,-2.596330395E-1,2.192236338E0,-4.601404377E0,5.103550893E0
9.503532083E0,-1.848534371E-1,3.401330608E0,-4.362073748E0,5.534519679E0
9.513473083E0,-1.008556992E-2,4.150851268E0,-4.272402018E0,5.956768165E0
9.523415083E0,5.269614534E-1,4.845348460E0,-4.246187488E0,6.464147141E0
9.533357083E0,9.809367916E-1,5.662430189E0,-4.081073520E0,7.048440516E0
9.543298083E0,1.366993504E0,6.403967062E0,-4.026731252E0,7.687264139E0
9.553240083E0,1.532620127E0,6.914349466E0,-4.106557440E0,8.186633435E0
9.563182083E0,1.483600579E0,7.204823937E0,-4.213531666E0,8.477287758E0
9.573123083E0,1.210317653E0,7.158254372E0,-4.286852242E0,8.431048370E0
9.583065083E0,1.216540552E0,6.982429767E0,-4.143264506E0,8.209807375E0
9.593007083E0,1.270361395E0,6.877379860E0,-3.642416571E0,7.885389673E0
9.602948083E0,1.513846764E0,6.785140033E0,-2.875455421E0,7.523170952E0
9.612890083E0,1.855530564E0,6.677507411E0,-2.044120226E0,7.225685186E0
9.622831083E0,2.284215672E0,6.316495054E0,-1.152990820E0,6.815067046E0
9.632773083E0,2.854969993E0,5.721952506E0,-4.321820346E-1,6.409241410E0
9.642715083E0,3.172597471E0,4.920191651E0,1.564100951E-1,5.856460084E0
9.652656083E0,3.383994198E0,3.539918974E0,1.010619305E0,5.000379431E0
9.662598083E0,3.015554708E0,1.290250699E0,2.751604376E0,4.281313315E0
9.672540083E0,2.459117002E0,-2.303282565E0,6.033842404E0,6.910833608E0
9.682481083E0,1.927502188E0,-6.523166646E0,8.945534774E0,1.123786279E1
9.692423083E0,1.146154475E0,-1.033332580E1,1.014577051E1,1.452680114E1
9.702365083E0,4.814714313E-2,-1.358189615E1,1.287319724E1,1.871334893E1
9.712306083E0,-2.501966860E0,-1.365908641E1,1.260483693E1,1.875399674E1
9.722248083E0,-3.757990882E0,-9.467040921E0,7.942686419E0,1.291640921E1
9.732189083E0,-3.878111402E0,-4.649255651E0,5.062837400E0,7.892252448E0
9.742131083E0,-2.908394541E0,-1.944179909E0,3.081008440E0,4.661674305E0
9.752073083E0,-3.086410390E-1,-1.517396901E0,1.383319076E0,2.076372874E0
9.762014083E0,2.754280062E0,-1.549946596E0,-1.748204044E0,3.611732339E0
9.771956083E0,4.715247912E0,-1.467557573E0,-4.952681705E0,6.994022031E0
9.781898083E0,6.055905703E0,-2.027600965E0,-6.548184543E0,9.146796180E0
9.791839083E0,7.566063166E0,-2.975280840E0,-6.899260726E0,1.066289860E1
9.801781083E0,9.223818970E0,-4.887164823E0,-6.242587418E0,1.216277575E1
9.811722083E0,1.011939372E1,-7.159855925E0,-5.569713814E0,1.358997344E1
9.821664083E0,9.861665998E0,-7.743609191E0,-5.496759274E0,1.369051869E1
9.831606083E0,7.642890902E0,-4.049026101E0,-4.542602438E0,9.769525608E0
9.841547083E0,2.779110264E0,1.712385170E0,-1.310927038E0,3.517704724E0
9.851489083E0,2.333991776E-1,4.613297614E0,-1.770493192E0,4.946881461E0
9.861431083E0,2.165919409E-1,5.248918607E0,-3.704172524E0,6.427982008E0
9.871372083E0,-7.766558343E-1,4.617308804E0,-4.557822155E0,6.534254179E0
9.881314083E0,-2.860241843E0,3.451772198E0,-6.277785902E0,7.714033351E0
9.891256083E0,-3.959719237E0,2.532633167E0,-7.708557472E0,9.028591557E0
9.901197083E0,-4.612722833E0,1.606963965E0,-8.161949404E0,9.511937931E0
9.911139083E0,-5.453774053E0,1.110908993E0,-9.207813971E0,1.075925687E1
9.921080083E0,-6.954947269E0,7.480641192E-1,-8.149613534E0,1.073997636E1
9.931022083E0,-7.769383718E0,1.000983093E0,-6.498511861E0,1.017820942E1
9.940964083E0,-7.520484704E0,2.136985413E0,-4.759742299E0,9.153116606E0
9.950905083E0,-6.466591911E0,2.400699517E0,-3.147666698E0,7.582082481E0
9.960847083E0,-5.496770968E0,1.863929213E0,-2.254387563E0,6.226635245E0
9.970789083E0,-4.316690876E0,9.762230587E-1,-1.183301616E0,4.581160802E0
9.980730083E0,-2.104153297E0,6.106890500E-2,5.829978061E-1,2.184279504E0
9.990672083E0,-5.497454216E-1,-6.668345994E-1,2.161796903E0,2.328143952E0
1.000061308E1,4.633035475E-1,-1.645929810E0,5.129480456E0,5.406968177E0
1.001055508E1,2.994180796E0,-2.473161721E0,1.258295665E1,1.316861594E1
1.002049708E1,3.050621045E0,-1.481623635E0,1.327979273E1,1.370599841E1
1.003043808E1,1.480693782E0,2.629370087E-1,7.499811873E0,7.649102436E0
1.004038008E1,1.441561876E0,8.162052315E-1,2.340682526E0,2.867592424E0
1.005032208E1,1.887016798E0,9.563933963E-1,-1.675543400E-1,2.122167566E0
1.006026308E1,1.694879192E0,1.191578350E0,-1.192681135E0,2.390598822E0
1.007020508E1,5.814015162E-1,1.219685331E0,-2.155091901E0,2.543635416E0
1.008014608E1,-4.299630162E-1,7.595135522E-1,-1.584741622E0,1.809180765E0
1.009008808E1,-5.065498468E-1,7.172346747E-1,-9.517969000E-1,1.294965507E0
1.010003008E1,-9.740505257E-1,7.213481909E-1,-7.858704615E-1,1.444544918E0
1.010997108E1,-1.346987109E0,6.716994828E-1,-1.294567698E0,1.985311057E0
1.011991308E1,-1.251521374E0,5.003158379E-1,-1.893769308E0,2.324431948E0
1.012985508E1,-1.238187091E0,4.562061971E-1,-1.668754417E0,2.127433352E0
1.013979608E1,-1.722563273E0,6.040197158E-1,-6.604922707E-1,1.941214590E0
1.014973808E1,-2.365204871E0,8.057977724E-1,3.621052746E-1,2.524801846E0
1.015968008E1,-2.594172188E0,1.103660785E0,1.187545964E0,3.059094946E0
1.016962108E1,-2.377829740E0,1.355539539E0,1.762334279E0,3.255362319E0
1.017956308E1,-1.952112534E0,1.377656048E0,2.124287599E0,3.197073245E0
1.018950408E1,-1.539007333E0,1.285672914E0,2.292763424E0,3.046024053E0
1.019944608E1,-1.242395478E0,1.151179937E0,2.224175438E0,2.795660593E0
1.020938808E1,-1.040699502E0,9.659261119E-1,1.969301740E0,2.427801073E0
1.021932908E1,-8.476865675E-1,7.531535357E-1,1.830717759E0,2.153448462E0
1.022927108E1,-7.710136367E-1,4.864591062E-1,2.021707410E0,2.217747808E0
1.023921308E1,-7.409973937E-1,7.047181249E-2,2.407856655E0,2.520281152E0
1.024915408E1,-8.704600838E-1,-2.704278767E-1,2.742963946E0,2.890446886E0
1.025909608E1,-1.258642113E0,-3.316979259E-1,3.040825789E0,3.307691788E0
1.026903708E1,-1.833485392E0,-2.126456916E-1,3.203669868E0,3.697348712E0
1.027897908E1,-2.687645193E0,-2.753284281E-1,3.154888009E0,4.153620201E0
1.028892079E1,-3.750433063E0,-2.670107639E-1,2.319520283E0,4.417829473E0
1.029886179E1,-4.700356515E0,5.399786711E-2,1.014010397E0,4.808792388E0
1.030880379E1,-5.344489592E0,3.924276924E-1,6.773414612E-2,5.359305590E0
1.031874579E1,-5.686820680E0,4.157411259E-1,-1.943512157E-1,5.705308276E0
1.032868679E1,-5.566276821E0,6.826214969E-2,1.018409550E-1,5.567626869E0
1.033862879E1,-4.847275118E0,-7.813681054E-1,8.440876794E-1,4.981876774E0
1.034856979E1,-3.962993385E0,-2.133653669E0,1.922253142E0,4.894165066E0
1.035851179E1,-3.309820805E0,-3.276859758E0,3.178152326E0,5.638561505E0
1.036845379E1,-3.183574449E0,-3.966620121E0,4.706373593E0,6.929586846E0
1.037839479E1,-3.307802931E0,-4.325655534E0,6.306339025E0,8.332032641E0
1.038833679E1,-3.685398869E0,-4.490346456E0,7.219199317E0,9.266186642E0
1.039827879E1,-3.891105670E0,-4.268473274E0,7.063599061E0,9.124417741E0
1.040821979E1,-3.597916337E0,-3.701804402E0,5.814840789E0,7.775649889E0
1.041816179E1,-3.613724577E0,-3.297455406E0,4.988843225E0,6.987186429E0
1.042810279E1,-3.664963143E0,-2.792045474E0,4.266662976E0,6.279481325E0
1.043804479E1,-3.361620412E0,-2.353527689E0,2.347895359E0,4.727811015E0
1.044798679E1,-3.102618579E0,-2.461732169E0,8.213477846E-1,4.044870765E0
1.045792779E1,-1.918032768E0,-2.294358544E0,1.192573985E-1,2.992850340E0
1.046786979E1,-5.513824958E-1,-2.659011378E0,-7.595614994E-1,2.819804574E0
1.047781179E1,8.157893483E-1,-3.550378473E0,-2.042047681E0,4.176201419E0
1.048775279E1,1.226829167E0,-4.423227437E0,-3.184831016E0,5.586877425E0
1.049769479E1,1.421764081E0,-4.501377813E0,-4.239797359E0,6.345052952E0
1.050763679E1,2.448137977E0,-4.244804914E0,-4.854013449E0,6.897332446E0
1.051757779E1,4.061658133E0,-4.194121833E0,-4.820867922E0,7.571558114E0
1.052751979E1,5.356593329E0,-4.264443372E0,-3.750687709E0,7.806806496E0
1.053746079E1,6.059471920E0,-4.387604445E0,-2.085583125E0,7.766461851E0
1.054740279E1,5.982694470E0,-3.754255680E0,-5.189570537E-1,7.082117286E0
1.055734479E1,5.046687391E0,-2.660372609E0,-3.446202725E-2,5.705069997E0
1.056728579E1,3.389668628E0,-1.564366415E0,-6.834021002E-2,3.733867442E0
1.057722779E1,1.470800439E0,-1.968301427E-1,-1.189298521E0,1.901690566E0
1.058716979E1,-3.095972049E-1,5.183381259E-2,-3.533226543E0,3.547143496E0
1.059711079E1,-1.185026253E0,2.166972274E-1,-2.002678962E0,2.337085350E0
1.060705279E1,-1.991451724E0,5.603521246E-1,-1.048673569E0,2.319394474E0
1.061699379E1,-4.120833710E0,2.523623192E-1,-5.938502383E-1,4.171044870E0
1.062693579E1,-4.776340790E0,-1.907513773E-1,-7.892089292E-1,4.844859974E0
1.063687779E1,-3.679552823E0,-8.172214776E-1,-3.858106323E0,5.393694867E0
1.064681879E1,-3.293097769E0,-1.334286665E0,-7.035171068E0,7.881525599E0
1.065676079E1,-2.595826950E0,-8.386825132E-1,-7.417656155E0,7.903374516E0
1.066670279E1,-1.380363747E0,1.186984777E-2,-6.888554474E0,7.025505513E0
1.067664379E1,-1.143330050E0,8.936235362E-1,-6.582199550E0,6.740260941E0
1.068658579E1,-1.613385378E0,1.836404614E0,-5.983199669E0,6.463286514E0
1.069652679E1,-2.062522583E0,2.968730789E0,-4.851424887E0,6.050097961E0
1.070646879E1,-2.018833650E0,3.997377060E0,-3.972803552E0,5.986474816E0
1.071641079E1,-1.173901486E0,4.790581684E0,-3.552426753E0,6.078441692E0
1.072635179E1,-5.777794585E-2,5.307016541E0,-3.632113193E0,6.431174784E0
1.073629379E1,1.228787984E0,5.662793301E0,-3.971683810E0,7.025056595E0
1.074623579E1,2.489830379E0,6.080017281E0,-4.347416532E0,7.878191160E0
1.075617679E1,3.462664976E0,6.564671937E0,-4.562693471E0,8.712240704E0
1.076611879E1,4.042527505E0,6.820460724E0,-4.567892815E0,9.150210811E0
1.077605979E1,4.156512835E0,6.653575927E0,-4.671211654E0,9.130547074E0
1.078600179E1,3.689147519E0,6.296123940E0,-4.935659291E0,8.809751342E0
1.079594379E1,3.226592707E0,5.923856277E0,-4.979315772E0,8.384304339E0
1.080588479E1,2.864107729E0,5.732596777E0,-4.236226756E0,7.681887530E0
1.081582679E1,2.693419903E0,5.524049984E0,-3.192316329E0,6.925353604E0
1.082576879E1,2.528674602E0,5.061220645E0,-2.169184275E0,6.059332478E0
1.083570979E1,2.798462209E0,4.379649308E0,-9.898581809E-1,5.290797484E0
1.084565179E1,3.271133580E0,3.560454980E0,2.863334727E-1,4.843463784E0
1.085559279E1,3.460058872E0,2.597983403E0,1.672717659E0,4.638912537E0
1.086553479E1,3.545997155E0,1.269514718E0,4.068482711E0,5.544214553E0
1.087547679E1,2.820425520E0,-1.304320854E0,8.168037525E0,8.739158427E0
1.088541779E1,1.428799597E0,-5.300700964E0,1.246118488E1,1.361690228E1
1.089535979E1,-7.230655912E-1,-9.741979925E0,1.471417086E1,1.766170493E1
1.090530179E1,-4.621307130E0,-1.405153983E1,1.566414109E1,2.154454844E1
1.091524279E1,-9.429607632E0,-1.504688328E1,1.294622662E1,2.197569067E1
1.092518479E1,-9.124009337E0,-9.892927551E0,8.017861147E0,1.566536496E1
1.093512579E1,-5.910453290E0,-4.078816495E0,4.978754439E0,8.738317793E0
1.094506779E1,-3.516358788E0,-1.445861480E0,2.660588372E0,4.640476810E0
1.095500979E1,-8.917833444E-1,-1.385011261E0,5.261549762E-1,1.729269436E0
1.096495079E1,1.445839114E0,-1.887178327E0,-2.635635964E0,3.549432309E0
1.097489279E1,3.238082778E0,-1.992941009E0,-5.859464400E0,6.985006586E0
1.098483479E1,5.339054605E0,-2.629506912E0,-7.582877419E0,9.639493795E0
1.099477579E1,7.451068314E0,-3.572663966E0,-8.028052844E0,1.152093656E1
1.100471779E1,9.667334370E0,-6.083018657E0,-6.644635534E0,1.321407020E1
1.101465879E1,1.019408722E1,-1.079333444E1,-6.394250743E0,1.616483607E1
1.102460079E1,8.656897498E0,-1.215911421E1,-7.594560156E0,1.674703785E1
1.103454279E1,8.489323314E0,-4.908478509E0,-8.494143759E0,1.297352110E1
1.104448379E1,6.317799568E0,3.769195316E0,-6.341148085E0,9.712444788E0
1.105442579E1,3.661081761E0,6.510893925E0,-4.385367301E0,8.661795756E0
1.106436779E1,2.888554061E0,6.378846838E0,-3.555663772E0,7.853418135E0
1.107430879E1,1.978483476E0,5.682728214E0,-2.544743920E0,6.533262465E0
1.108425079E1,3.308913391E-1,4.097391345E0,-2.221918413E0,4.672796416E0
1.109419179E1,-9.208160126E-1,3.168687438E0,-3.204778792E0,4.599901012E0
1.110413379E1,-2.216647002E0,2.756274548E0,-4.935817165E0,6.072303056E0
1.111407579E1,-3.723508974E0,1.865216185E0,-5.262713358E0,6.711162521E0
1.112401679E1,-4.190534274E0,1.676651666E0,-4.464345642E0,6.348395099E0
1.113395879E1,-4.627426241E0,1.856403261E0,-4.291346412E0,6.578370673E0
1.114390079E1,-4.629564275E0,2.001357492E0,-3.977622242E0,6.423377296E0
1.115384179E1,-4.871084395E0,1.624267631E0,-4.328877935E0,6.716017622E0
1.116378379E1,-4.808691096E0,8.525725740E-1,-3.744266297E0,6.153854089E0
1.117372479E1,-4.045543499E0,3.679033005E-1,-1.868372512E0,4.471307514E0
1.118366679E1,-2.809110865E0,9.238799536E-1,-2.617564559E-2,2.957252642E0
1.119360879E1,-2.283597621E0,1.549066590E0,1.210468950E0,3.013247496E0
1.120354979E1,-2.618027658E0,1.425962820E0,2.192170265E0,3.700412038E0
1.121349179E1,-2.319433598E0,7.516502166E-1,3.909503349E0,4.607490282E0
1.122343379E1,-2.460445489E-1,6.964969397E-2,5.941856346E0,5.947356206E0
1.123337479E1,2.077001751E0,-3.328995287E-1,6.646277432E0,6.971209513E0
1.124331679E1,2.927012075E0,-1.635752732E-1,5.131298940E0,5.909685725E0
1.125325779E1,2.753956711E0,3.384836197E-2,3.197740499E0,4.220304204E0
1.126319979E1,2.509509476E0,1.436503011E-1,1.673866053E0,3.019950460E0
1.127314179E1,2.154038963E0,2.934314078E-1,7.745398001E-1,2.307790664E0
1.128308279E1,1.399370999E0,5.628050315E-1,3.927563790E-1,1.558603949E0
1.129302442E1,5.330918205E-1,5.064612615E-1,1.360623693E-1,7.477986807E-1
1.130296642E1,-4.811979277E-1,2.440540105E-1,1.919125613E-1,5.726641572E-1
1.131290742E1,-1.564241138E0,-6.933686793E-2,4.455432147E-3,1.565783443E0
1.132284942E1,-2.317842132E0,-2.748922259E-1,-4.661762115E-1,2.380184477E0
1.133279042E1,-2.789537019E0,-2.050191683E-1,-8.217278536E-1,2.915267793E0
1.134273242E1,-3.025235066E0,1.232715851E-1,-6.050440749E-1,3.087607718E0
1.135267442E1,-3.017357112E0,5.992934114E-1,-2.783852063E-2,3.076421869E0
1.136261542E1,-2.843544241E0,1.093281392E0,6.946739240E-1,3.124672769E0
1.137255742E1,-2.557906879E0,1.511214055E0,1.546558135E0,3.349402572E0
1.138249942E1,-2.050167709E0,1.914521077E0,2.225991729E0,3.581007926E0
1.139244042E1,-1.478106243E0,2.087997440E0,2.677602600E0,3.703253577E0
1.140238242E1,-9.252382618E-1,1.907834201E0,2.814883529E0,3.524126340E0
1.141232342E1,-4.190879991E-1,1.478383693E0,2.638125708E0,3.053024786E0
1.142226542E1,-4.622977533E-1,8.797270435E-1,2.376072360E0,2.575530769E0
1.143220742E1,-6.011419355E-1,3.836323106E-1,2.444545594E0,2.546438402E0
1.144214842E1,-7.124621773E-1,5.901068509E-2,2.994745052E0,3.078893071E0
1.145209042E1,-1.027879262E0,-5.794883072E-2,3.520301273E0,3.667753386E0
1.146203242E1,-1.753125938E0,-1.080495286E-1,3.746123958E0,4.137459361E0
1.147197342E1,-2.850386068E0,-1.272868681E-1,3.378656567E0,4.422241839E0
1.148191542E1,-4.229083798E0,-1.722139496E-1,2.338902341E0,4.835832045E0
1.149185642E1,-5.528365229E0,-1.873582381E-1,9.943004568E-1,5.620192044E0
1.150179842E1,-6.253329338E0,-1.423896414E-1,2.754143822E-1,6.261010757E0
1.151174042E1,-6.593748971E0,-2.898634368E-1,5.398003310E-2,6.600337881E0
1.152168142E1,-6.316749408E0,-8.556739372E-1,1.149442729E-1,6.375477485E0
1.153162342E1,-5.344752132E0,-1.987508361E0,8.712678766E-1,5.768506961E0
1.154156442E1,-3.764058245E0,-3.465476317E0,2.466963673E0,5.680103022E0
1.155150642E1,-2.029321800E0,-4.990743570E0,4.585909256E0,7.075042901E0
1.156144842E1,-1.435016356E0,-5.831913489E0,6.240321622E0,8.660952652E0
1.157138942E1,-2.014098575E0,-5.953115745E0,7.020204535E0,9.422284853E0
1.158133142E1,-3.107857392E0,-5.567809376E0,6.490637416E0,9.098772053E0
1.159127342E1,-4.299628993E0,-4.756362609E0,5.363705882E0,8.359374111E0
1.160121442E1,-5.317135148E0,-3.972436346E0,4.281569867E0,7.898355350E0
1.161115642E1,-5.434070690E0,-3.263545064E0,2.535655593E0,6.827107728E0
1.162109742E1,-5.012248460E0,-3.213108151E0,6.573335318E-1,5.989890315E0
1.163103942E1,-3.738344237E0,-3.053984363E0,-4.617440951E-1,4.849252080E0
1.164098142E1,-1.548866177E0,-3.008081966E0,-1.186374328E0,3.585390857E0
1.165092242E1,2.513630301E-1,-4.220473480E0,-1.425528957E0,4.461805977E0
1.166086442E1,1.489801843E0,-5.133786346E0,-2.058738558E0,5.728322287E0
1.167080642E1,2.156516575E0,-5.076354409E0,-3.773439226E0,6.682722605E0
1.168074742E1,3.277692987E0,-4.746978997E0,-5.149232351E0,7.732507660E0
1.169068942E1,4.431531360E0,-4.261688749E0,-5.257418119E0,8.089555394E0
1.170063042E1,5.278223097E0,-3.374335182E0,-4.595821456E0,7.769642967E0
1.171057242E1,6.187769186E0,-2.125967504E0,-3.036627488E0,7.213136061E0
1.172051442E1,5.923580874E0,-6.511377490E-1,-5.200231473E-1,5.981907288E0
1.173045542E1,4.569713638E0,5.459416616E-1,1.315825835E0,4.786620171E0
1.174039742E1,3.647881379E0,1.062841372E0,8.119946516E-1,3.885357854E0
1.175033942E1,2.712719808E0,9.233525348E-1,-1.865551523E0,3.419314426E0
1.176028042E1,1.132310680E0,6.395082217E-1,-3.526190296E0,3.758339560E0
1.177022242E1,5.974623558E-1,1.613960159E-1,-3.718314600E0,3.769465931E0
1.178016342E1,-1.092848187E0,-1.260782486E-1,-1.489637537E0,1.851818802E0
1.179010542E1,-3.315534997E0,-1.018696064E0,2.023697364E0,4.015702306E0
1.180004742E1,-4.124560432E0,-2.364649093E0,1.803146529E0,5.084771529E0
1.180998842E1,-3.925557464E0,-2.450884414E0,-2.755794199E0,5.386208080E0
1.181993042E1,-4.366788065E0,-1.776361311E0,-6.328712811E0,7.891571666E0
1.182987142E1,-3.675803296E0,-1.115272186E0,-7.283982373E0,8.234789683E0
1.183981342E1,-1.645173327E0,-9.233572125E-2,-7.245392504E0,7.430399296E0
1.184975542E1,-8.154149804E-1,9.432529485E-1,-6.736095927E0,6.850519401E0
1.185969642E1,-6.468650423E-1,1.881659725E0,-6.208668889E0,6.519712193E0
1.186963842E1,-6.221719582E-1,2.957277263E0,-5.913359941E0,6.640814148E0
1.187958042E1,-5.802295149E-1,4.016923133E0,-5.665238022E0,6.969021423E0
1.188952142E1,1.897879755E-1,4.889283269E0,-5.246157551E0,7.173791147E0
1.189946342E1,1.332977181E0,5.634972834E0,-4.729825020E0,7.476696579E0
1.190940442E1,2.064404656E0,6.447190849E0,-4.300348785E0,8.020039657E0
1.191934642E1,2.642992053E0,7.219678788E0,-3.983167741E0,8.658798650E0
1.192928842E1,3.003242226E0,7.554873934E0,-3.852198882E0,8.996389289E0
1.193922942E1,3.156644513E0,7.662303658E0,-3.871180113E0,9.146657170E0
1.194917142E1,2.924210089E0,7.413254955E0,-3.806212869E0,8.831455717E0
1.195911342E1,2.489360847E0,6.806080082E0,-3.969395210E0,8.262913641E0
1.196905442E1,2.174133505E0,6.268232136E0,-4.045915382E0,7.770908691E0
1.197899642E1,1.955145192E0,5.872362188E0,-3.688740260E0,7.205139492E0
1.198893742E1,2.456976044E0,5.361770453E0,-2.979307233E0,6.607691372E0
1.199887942E1,3.055158484E0,4.728067932E0,-2.185620506E0,6.038671769E0
1.200882142E1,2.918447658E0,3.996828007E0,-1.377988755E0,5.137200002E0
1.201876242E1,3.238920684E0,3.087581295E0,7.833047032E-2,4.475477753E0
1.202870442E1,3.577791682E0,1.797456311E0,2.140153434E0,4.540010929E0
1.203864642E1,3.272972822E0,-4.870303792E-1,5.474176158E0,6.396573637E0
1.204858742E1,1.938713639E0,-3.944159796E0,9.607857077E0,1.056531707E1
1.205852942E1,-2.639457996E-1,-8.463310806E0,1.293506662E1,1.546005323E1
1.206847042E1,-3.627706146E0,-1.376504965E1,1.462769405E1,2.041093523E1
1.207841242E1,-7.386474123E0,-1.760988163E1,1.395210442E1,2.365014056E1
1.208835442E1,-8.241756881E0,-1.381227878E1,1.046570442E1,1.918949115E1
1.209829542E1,-5.893630850E0,-6.239279648E0,7.289365904E0,1.126047736E1
1.210823742E1,-4.125592174E0,-1.735407997E0,4.512917878E0,6.355987687E0
1.211817842E1,-2.656285113E0,7.202196783E-1,1.912913385E0,3.351686830E0
1.212812042E1,-1.044667276E0,1.295789766E0,-2.215928087E-1,1.679137936E0
1.213806242E1,1.328802561E0,1.200140428E0,-3.678159724E0,4.090832708E0
1.214800342E1,4.493727316E0,8.673081422E-1,-6.269463560E0,7.762215015E0
1.215794542E1,6.666698248E0,-2.415525717E-1,-7.310367934E0,9.896701092E0
1.216788742E1,8.291003886E0,-2.381725886E0,-7.389838026E0,1.135883223E1
1.217782842E1,1.066465477E1,-5.828344349E0,-7.297264908E0,1.417584334E1
1.218777042E1,1.217683595E1,-9.788313262E0,-6.920414783E0,1.708737988E1
1.219771142E1,1.210677461E1,-1.138264373E1,-6.956335983E0,1.801469345E1
1.220765342E1,1.050784648E1,-7.116094778E0,-5.595514653E0,1.386951429E1
1.221759542E1,5.417614287E0,1.202982759E0,-8.021108106E-2,5.550148277E0
1.222753642E1,1.780723334E0,4.923531581E0,1.670034226E-1,5.238323106E0
1.223747842E1,1.677917588E0,5.320167514E0,-1.819496659E0,5.867721696E0
1.224742042E1,6.881596872E-1,4.633654110E0,-2.044992338E0,5.111390010E0
1.225736142E1,-7.617679462E-1,4.028167328E0,-3.361564279E0,5.301559849E0
1.226730342E1,-1.865640108E0,4.108313359E0,-5.757460307E0,7.314861643E0
1.227724442E1,-3.108902582E0,4.022921791E0,-8.441729318E0,9.854540521E0
1.228718708E1,-4.796307862E0,2.899430174E0,-8.373064880E0,1.007568757E1
1.229712908E1,-6.495901079E0,9.816387498E-1,-7.559402018E0,1.001523361E1
1.230707008E1,-7.789843125E0,4.650904566E-1,-6.443479037E0,1.012009818E1
1.231701208E1,-7.525137334E0,9.050671220E-1,-5.225811580E0,9.206299205E0
1.232695308E1,-6.635463007E0,1.067864131E0,-4.572710336E0,8.128922618E0
1.233689508E1,-5.867084491E0,5.370000994E-1,-3.544139494E0,6.875461751E0
1.234683708E1,-4.919308721E0,8.049809164E-1,-1.090628438E0,5.102652542E0
1.235677808E1,-3.421939704E0,1.232335197E0,-4.666545868E-2,3.637375295E0
1.236672008E1,-2.333436364E0,9.317859739E-1,2.007612441E-1,2.520606165E0
1.237666208E1,-2.305548946E0,-2.409532320E-1,7.776609707E-1,2.445070753E0
1.238660308E1,-1.771946809E0,-1.174093421E0,2.560822009E0,3.328077556E0
1.239654508E1,8.457789865E-1,-2.055030838E0,1.043250160E1,1.066656380E1
1.240648608E1,3.118622116E0,-1.990678137E0,1.534475331E1,1.578448788E1
1.241642808E1,2.657565654E0,-3.625718093E-1,1.060404604E1,1.093800283E1
1.242637008E1,2.896352785E0,3.477514565E-1,6.328813384E0,6.968763834E0
1.243631108E1,3.015684516E0,7.655157191E-1,3.746201141E0,4.869742334E0
1.244625308E1,2.302869313E0,1.216977485E0,1.569525998E0,3.040995418E0
1.245619408E1,1.050085525E0,1.416603767E0,-3.414119784E-1,1.796109123E0
1.246613608E1,-5.628491049E-1,1.344079581E0,-1.104529608E0,1.828478792E0
1.247607808E1,-1.240207596E0,1.205955484E0,-1.780818644E0,2.482691796E0
1.248601908E1,-2.313620150E0,9.780240011E-1,-2.163339983E0,3.315027757E0
1.249596108E1,-3.226555285E0,6.436538976E-1,-2.170478264E0,3.941563807E0
1.250590308E1,-3.297162753E0,4.901446062E-1,-1.973014137E0,3.873539562E0
1.251584408E1,-2.840425336E0,6.913139677E-1,-1.443660003E0,3.260381158E0
1.252578608E1,-2.373373724E0,9.989383221E-1,-5.186573839E-1,2.626744389E0
1.253572708E1,-2.021308484E0,1.270893492E0,9.714096308E-1,2.577691782E0
1.254566908E1,-2.044765466E0,1.442902204E0,2.395062654E0,3.464008906E0
1.255561108E1,-2.071665290E0,1.675196879E0,3.658734981E0,4.525972085E0
1.256555208E1,-1.976919054E0,1.742886001E0,4.337532399E0,5.075435732E0
1.257549408E1,-1.800901783E0,1.547970822E0,4.219950739E0,4.842256203E0
1.258543508E1,-1.585706120E0,1.053663583E0,3.469952946E0,3.957934347E0
1.259537708E1,-1.603461483E0,3.856683111E-1,2.606486424E0,3.084412465E0
1.260531908E1,-1.636519009E0,-9.414251089E-2,2.145095501E0,2.699720724E0
1.261526008E1,-1.481480963E0,-3.420001352E-1,2.279174495E0,2.739778516E0
1.262520208E1,-1.422248376E0,-6.628696024E-1,2.666812148E0,3.094199991E0
1.263514408E1,-1.879962278E0,-9.832531661E-1,2.981778266E0,3.659514529E0
1.264508508E1,-3.065928178E0,-9.089087427E-1,2.774710526E0,4.233798436E0
1.265502708E1,-4.478055024E0,-8.717567039E-1,2.399392956E0,5.154611829E0
1.266496808E1,-5.642693498E0,-9.225736856E-1,1.889161410E0,6.021632914E0
1.267491008E1,-6.271266257E0,-1.082502635E0,1.309194216E0,6.497274960E0
1.268485208E1,-6.242587418E0,-1.533267413E0,8.063474107E-1,6.478503128E0
1.269479308E1,-5.608766783E0,-2.533242447E0,1.066377915E0,6.246018250E0
1.270473508E1,-4.236020350E0,-4.002814971E0,2.651850585E0,6.403023318E0
1.271467608E1,-2.649176069E0,-5.204842880E0,5.348580304E0,7.919332959E0
1.272461808E1,-2.476264546E0,-5.174223935E0,7.395518596E0,9.359389656E0
1.273456008E1,-3.314942674E0,-4.992102463E0,7.235495507E0,9.394803200E0
1.274450108E1,-4.623950071E0,-5.001412985E0,6.218437833E0,9.223015515E0
1.275444308E1,-5.543425902E0,-4.334370224E0,3.325119753E0,7.782850207E0
1.276438508E1,-5.564332037E0,-4.285550067E0,4.112687369E-1,7.035401365E0
1.277432608E1,-4.224167166E0,-4.341923658E0,-1.554277629E0,6.253932223E0
1.278426808E1,-2.163571825E0,-3.980262260E0,-2.134154191E0,5.007808384E0
1.279420908E1,4.464452939E-1,-4.102433984E0,-1.849904666E0,4.522325205E0
1.280415108E1,2.149002610E0,-5.378913320E0,-1.934337291E0,6.106765222E0
1.281409308E1,2.850105402E0,-5.893074780E0,-2.519880390E0,7.014358726E0
1.282403408E1,3.895271226E0,-5.680991591E0,-3.477749623E0,7.716316856E0
1.283397608E1,5.162209661E0,-5.532555344E0,-3.896960194E0,8.511396828E0
1.284391708E1,6.013160802E0,-5.118325138E0,-3.229556953E0,8.531435586E0
1.285385908E1,6.518971853E0,-4.139249223E0,-2.446249473E0,8.100278676E0
1.286380108E1,6.778929706E0,-2.682761598E0,-1.497477776E0,7.442683484E0
1.287374208E1,6.236233833E0,-1.049973990E0,-5.413048196E-1,6.347130746E0
1.288368408E1,5.211997533E0,5.400921071E-1,-1.814668760E-1,5.243047586E0
1.289362608E1,4.240685551E0,1.606432453E0,-4.900253230E-1,4.561158184E0
1.290356708E1,2.920306781E0,1.907444192E0,-1.965458219E0,4.003693426E0
1.291350908E1,9.518688208E-1,1.751737517E0,-4.860295405E0,5.253295157E0
1.292345008E1,-1.351168161E0,1.762437336E0,-4.797260374E0,5.286354874E0
1.293339208E1,-2.280990932E0,1.524419407E0,-2.852006624E0,3.957362246E0
1.294333408E1,-2.645371578E0,1.124278067E0,-4.222476152E-1,2.905216860E0
1.295327508E1,-2.996642473E0,5.974556315E-1,-5.955968016E-1,3.113126225E0
1.296321708E1,-3.282498813E0,2.187051612E-1,-4.158512290E0,5.302438578E0
1.297315808E1,-4.195904065E0,-5.012677646E-1,-6.794150008E0,8.001084590E0
1.298310008E1,-3.253530537E0,-9.194126809E-1,-6.905129576E0,7.688406539E0
1.299304208E1,-2.097417889E0,-8.183727944E-1,-7.135620970E0,7.482378129E0
1.300298308E1,-1.908319812E0,-2.954966444E-1,-6.604387980E0,6.880911521E0
1.301292508E1,-1.546819944E0,5.965721172E-1,-5.812156332E0,6.043981424E0
1.302286608E1,-1.338942364E0,1.367030488E0,-5.191614139E0,5.533027777E0
1.303280808E1,-1.113465031E0,2.143874602E0,-4.472960053E0,5.083637902E0
1.304275008E1,-3.931157635E-1,2.974042400E0,-3.830443146E0,4.865363594E0
1.305269108E1,4.293778561E-1,3.691852441E0,-3.515916739E0,5.116230087E0
1.306263308E1,1.319849597E0,4.487926878E0,-3.693908614E0,5.960574760E0
1.307257508E1,2.321590489E0,5.326310599E0,-3.903055624E0,6.999514998E0
1.308251608E1,3.148951624E0,6.034221303E0,-4.152052871E0,7.972908259E0
1.309245808E1,3.648780681E0,6.542239094E0,-4.329623747E0,8.652175137E0
1.310239908E1,3.781177431E0,6.728981035E0,-4.348025227E0,8.858996101E0
1.311234108E1,3.394189695E0,6.658253700E0,-4.555299082E0,8.752349156E0
1.312228308E1,2.711855882E0,6.442959219E0,-4.810198508E0,8.485510916E0
1.313222408E1,2.066187033E0,6.129130969E0,-4.596324901E0,7.934833198E0
1.314216608E1,1.700147240E0,5.750112112E0,-4.015939046E0,7.216789893E0
1.315210708E1,1.900768279E0,5.188768884E0,-3.094495627E0,6.333415016E0
1.316204908E1,2.490627354E0,4.411814842E0,-1.831452023E0,5.387165426E0
1.317199108E1,2.791164883E0,3.616533871E0,-6.148820883E-1,4.609555145E0
1.318193208E1,3.199708087E0,2.641176785E0,8.336971772E-1,4.231902366E0
1.319187408E1,2.890963406E0,1.233661931E0,2.857545691E0,4.247959340E0
1.320181608E1,1.728906478E0,-1.212515475E0,5.891966733E0,6.258960247E0
1.321175708E1,-5.893993378E-3,-4.790417962E0,1.014769308E1,1.122157804E1
1.322169908E1,-1.927830655E0,-8.793127683E0,1.287597349E1,1.571070714E1
1.323164008E1,-3.575679668E0,-1.199259954E1,1.284615620E1,1.793409206E1
1.324158208E1,-5.900899524E0,-1.344546657E1,1.160139158E1,1.871345700E1
1.325152408E1,-6.624821659E0,-1.053367948E1,9.057496675E0,1.539106596E1
1.326146508E1,-5.285912771E0,-4.809717867E0,6.223611449E0,9.476687145E0
1.327140708E1,-4.332606120E0,-1.447931394E0,3.408284409E0,5.699507323E0
1.328134808E1,-2.371927122E0,-1.008915426E0,1.654801498E0,3.063056743E0
1.329128971E1,-2.145840436E-2,-1.639513661E0,-1.690225393E-2,1.639741197E0
1.330123171E1,1.901524763E0,-1.934316825E0,-2.573452287E0,3.738988456E0
1.331117271E1,4.577000438E0,-2.690254805E0,-5.022433140E0,7.308299294E0
1.332111471E1,7.341074002E0,-4.233750753E0,-7.140112216E0,1.108139050E1
1.333105671E1,9.248692440E0,-7.018949137E0,-7.703213117E0,1.393353692E1
1.334099771E1,9.855042272E0,-1.044537366E1,-6.706841723E0,1.584958721E1
1.335093971E1,9.976977768E0,-9.759797561E0,-6.147388315E0,1.525070873E1
1.336088071E1,1.052378131E1,-3.330752960E0,-3.342542117E0,1.153327690E1
1.337082271E1,8.993298340E0,3.845366410E0,3.470605495E0,1.037840837E1
1.338076471E1,6.525933548E0,6.539059963E0,-2.279439958E0,9.515406476E0
1.339070571E1,4.836613305E0,7.011209763E0,-5.180885083E0,9.969526611E0
1.340064771E1,2.809639454E0,7.170180354E0,-5.322038623E0,9.361071267E0
1.341058871E1,2.609275400E-1,5.439662383E0,-5.448661832E0,7.703630688E0
1.342053071E1,-3.004709584E0,2.580532973E0,-6.596343965E0,7.694100585E0
1.343047271E1,-5.030478909E0,6.122449940E-1,-7.349058959E0,8.926882411E0
1.344041371E1,-5.256781942E0,-3.239959735E-1,-7.281400242E0,8.986518751E0
1.345035571E1,-5.639708494E0,-2.534832305E-1,-7.685762687E0,9.536326008E0
1.346029671E1,-6.405375656E0,2.420098239E-1,-6.655834122E0,9.240537533E0
1.347023871E1,-6.263540915E0,1.300363458E0,-4.729014596E0,7.955279315E0
1.348018071E1,-5.903182862E0,1.853921118E0,-3.642273315E0,7.179884840E0
1.349012171E1,-5.529966196E0,1.606628335E0,-1.246263265E0,5.891939652E0
1.350006371E1,-4.948022643E0,1.209752666E0,1.503936026E0,5.311144242E0
1.351000571E1,-3.499019162E0,8.539706433E-1,1.950966187E0,4.096177489E0
1.351994671E1,-2.441518637E0,1.932007760E-1,2.396546239E0,3.426627157E0
1.352988871E1,-1.779212413E0,-5.858875000E-1,3.892672724E0,4.319926146E0
1.353982971E1,-1.393090358E-1,-1.366613581E0,8.386868402E0,8.498623493E0
1.354977171E1,2.523715578E0,-1.592941173E0,1.202243905E1,1.238731782E1
1.355971371E1,2.868757143E0,-4.908246374E-1,8.405359637E0,8.894984373E0
1.356965471E1,2.586157410E0,-6.105662584E-3,3.995793049E0,4.759685863E0
1.357959671E1,2.551639249E0,-7.686691225E-2,8.256924120E-1,2.683009381E0
1.358953771E1,2.221385293E0,1.239270580E-1,-1.219519855E0,2.537151791E0
1.359947971E1,1.434440990E0,8.389941698E-1,-2.205904205E0,2.761801139E0
1.360942171E1,2.168784910E-1,1.092230648E0,-2.206899401E0,2.471924156E0
1.361936271E1,-8.335477808E-1,8.168115878E-1,-1.296217782E0,1.744179926E0
1.362930471E1,-1.384857479E0,9.242003810E-1,-6.493718898E-1,1.787081540E0
1.363924571E1,-2.162889601E0,1.186971914E0,-6.286728195E-1,2.546021065E0
1.364918771E1,-2.737214379E0,1.500055813E0,-8.872342106E-1,3.244949082E0
1.365912971E1,-2.921253152E0,1.637316862E0,-1.267875159E0,3.580786772E0
1.366907071E1,-3.076997542E0,1.495412539E0,-1.118366459E0,3.599293830E0
1.367901271E1,-3.252519554E0,1.488802262E0,-4.296991606E-1,3.602784616E0
1.368895371E1,-3.475861265E0,1.550418466E0,3.788352549E-1,3.824777785E0
1.369889571E1,-3.563497286E0,1.586700439E0,1.140346070E0,4.064052209E0
1.370883771E1,-3.077731952E0,1.507346122E0,1.660160325E0,3.807973031E0
1.371877871E1,-2.043337284E0,1.206575289E0,1.987524587E0,3.095368341E0
1.372872071E1,-9.432892743E-1,8.026186413E-1,2.377609885E0,2.680861821E0
1.373866271E1,-1.883342115E-1,4.559787405E-1,2.855636283E0,2.897938055E0
1.374860371E1,3.807648361E-1,1.951952612E-1,3.491372466E0,3.517494101E0
1.375854571E1,6.828214717E-1,-1.707012749E-1,4.081050131E0,4.141298620E0
1.376848671E1,7.403433826E-1,-6.291697598E-1,4.478771600E0,4.582942064E0
1.377842871E1,6.306885009E-1,-9.654250056E-1,4.745873581E0,4.883966572E0
1.378837071E1,1.953473254E-1,-1.051762068E0,5.013531339E0,5.126388643E0
1.379831171E1,-7.616273206E-1,-8.261361426E-1,5.078697388E0,5.201513651E0
1.380825371E1,-2.266888471E0,-5.107040012E-1,4.309766895E0,4.896293763E0
1.381819471E1,-4.049946452E0,-4.830759072E-1,2.605890008E0,4.840050757E0
1.382813671E1,-5.659267430E0,-5.873171443E-1,7.097771358E-1,5.733762539E0
1.383807871E1,-6.457336353E0,-5.760782111E-1,-5.906364624E-1,6.509831819E0
1.384801971E1,-6.420145138E0,-3.137031198E-1,-1.211307148E0,6.540943223E0
1.385796171E1,-6.180054955E0,-3.866237462E-2,-8.555831592E-1,6.239118252E0
1.386790271E1,-5.401385339E0,-3.525660539E-1,4.649062693E-1,5.432808136E0
1.387784471E1,-3.844253977E0,-1.742708831E0,2.290202636E0,4.802119410E0
1.388778671E1,-2.621588613E0,-3.958295440E0,4.199236393E0,6.338329112E0
1.389772771E1,-2.404957167E0,-5.410265506E0,5.159626361E0,7.853441030E0
1.390766971E1,-3.094459082E0,-5.570197964E0,5.714853401E0,8.559341783E0
1.391761071E1,-3.708037826E0,-5.237801880E0,6.075716654E0,8.837332511E0
1.392755271E1,-4.196923819E0,-4.511336206E0,5.445598476E0,8.223190784E0
1.393749471E1,-4.052738790E0,-3.689287852E0,4.417581950E0,7.039216352E0
1.394743571E1,-4.562644062E0,-3.867732595E0,3.395931873E0,6.878185047E0
1.395737771E1,-3.754141660E0,-3.523878307E0,1.693442531E0,5.420244047E0
1.396731971E1,-2.224837781E0,-2.956767971E0,1.143235910E-1,3.702087232E0
1.397726071E1,-1.040999391E0,-2.920059151E0,-6.793260062E-1,3.173627105E0
1.398720271E1,1.793278183E-1,-3.791966128E0,-9.668382776E-1,3.917389672E0
1.399714371E1,1.600715046E0,-4.992345707E0,-1.379110250E0,5.421046892E0
1.400708571E1,2.270803621E0,-5.251198436E0,-2.516900064E0,6.250313595E0
1.401702771E1,3.088840785E0,-4.557683576E0,-4.134883692E0,6.885541382E0
1.402696871E1,4.184016675E0,-3.850732985E0,-4.921068149E0,7.520043336E0
1.403691071E1,4.939523131E0,-3.181361863E0,-4.636532695E0,7.484476434E0
1.404685171E1,5.678749183E0,-2.388238515E0,-3.746699908E0,7.210383880E0
1.405679371E1,6.267230508E0,-1.522344230E0,-2.474629957E0,6.907930488E0
1.406673571E1,5.870567678E0,-5.071442163E-1,-1.083142613E0,5.991156652E0
1.407667671E1,4.674942762E0,3.857817471E-1,-2.953966570E-1,4.700125165E0
1.408661871E1,2.866751840E0,6.751610345E-1,-1.880301417E0,3.494229808E0
1.409655971E1,4.746310660E-1,4.350474626E-1,-4.024448207E0,4.075625634E0
1.410650171E1,-1.063845339E-1,5.731551880E-1,-3.558045343E0,3.605483490E0
1.411644371E1,-1.048604060E0,4.226642293E-1,-1.934797759E0,2.240905597E0
1.412638471E1,-2.321513014E0,-1.967207998E-1,-1.716479391E-1,2.336147419E0
1.413632671E1,-3.876041488E0,-1.187746085E0,2.312284353E-1,4.060530134E0
1.414626771E1,-3.520415002E0,-1.937249204E0,-1.638489813E0,4.339459083E0
1.415620971E1,-2.703717727E0,-1.907708486E0,-4.678170717E0,5.730159027E0
1.416615171E1,-3.071994664E0,-1.854767795E0,-7.789464226E0,8.576308513E0
1.417609271E1,-2.677433031E0,-1.670555944E0,-7.652342341E0,8.277544811E0
1.418603471E1,-1.368783191E0,-5.621366948E-1,-6.359724104E0,6.529598439E0
1.419597671E1,-1.137618782E0,7.369754595E-1,-5.978239476E0,6.129980143E0
1.420591771E1,-1.120782163E0,2.002638032E0,-5.632217626E0,6.081824326E0
1.421585971E1,-9.413145965E-1,3.152571927E0,-5.093151705E0,6.063413001E0
1.422580071E1,-2.163679560E-1,3.935970186E0,-4.573816337E0,6.038085150E0
1.423574271E1,8.574969529E-1,4.525668901E0,-4.176211812E0,6.217533685E0
1.424568471E1,1.784768438E0,4.991508386E0,-3.996052373E0,6.638447779E0
1.425562571E1,2.520576208E0,5.500675154E0,-4.028804967E0,7.269250377E0
1.426556771E1,3.233182227E0,6.091845614E0,-4.038165190E0,7.991922697E0
1.427550871E1,3.656084438E0,6.514259582E0,-4.099485818E0,8.521051302E0
1.428545071E1,3.600083607E0,6.825054882E0,-4.202385119E0,8.786467823E0
1.429539304E1,3.008736854E0,6.913023902E0,-4.170218416E0,8.615864354E0
1.430533404E1,2.174529215E0,6.629084280E0,-4.213915243E0,8.150485714E0
1.431527604E1,1.694224596E0,6.266078607E0,-4.231867072E0,7.748731316E0
1.432521704E1,1.633895656E0,6.013009944E0,-3.797484438E0,7.297039924E0
1.433515904E1,1.809601270E0,5.764534854E0,-2.965519206E0,6.730440030E0
1.434510104E1,1.860089639E0,5.425107493E0,-2.129647742E0,6.117771186E0
1.435504204E1,2.057836917E0,4.865942354E0,-1.424882255E0,5.471962829E0
1.436498404E1,2.430686231E0,3.883614217E0,-3.472696459E-1,4.594702509E0
1.437492504E1,2.335520019E0,2.488663275E0,1.100284310E0,3.585906331E0
1.438486704E1,2.187799763E0,4.379430038E-1,3.753060217E0,4.366202340E0
1.439480904E1,1.956072268E0,-2.707239797E0,8.129107348E0,8.788501142E0
1.440475004E1,6.405032717E-1,-7.177392309E0,1.238032958E1,1.432472566E1
1.441469204E1,-1.297126294E0,-1.210681905E1,1.545620007E1,1.967617150E1
1.442463304E1,-4.761059385E0,-1.640424423E1,1.647679882E1,2.373292680E1
1.443457504E1,-7.435793633E0,-1.560652380E1,1.272015455E1,2.146292021E1
1.444451704E1,-6.609547563E0,-8.722606754E0,8.294001169E0,1.373173124E1
1.445445804E1,-4.686105974E0,-3.171821546E0,4.729655744E0,7.374936242E0
1.446440004E1,-2.833539655E0,-4.461612654E-1,2.319113024E0,3.688670773E0
1.447434104E1,-8.528835728E-1,6.604131871E-1,2.125278702E-1,1.099419875E0
1.448428304E1,1.109537968E0,8.218296683E-1,-2.583716489E0,2.929516923E0
1.449422504E1,3.352235338E0,6.610470253E-1,-5.548389019E0,6.516063661E0
1.450416604E1,5.491044790E0,-4.853773713E-1,-7.150662932E0,9.028795294E0
1.451410804E1,7.295910693E0,-2.100895228E0,-8.277030795E0,1.123179916E1
1.452404904E1,8.748733867E0,-3.989353511E0,-8.387198769E0,1.275932557E1
1.453399104E1,9.755381159E0,-6.923695071E0,-7.117241417E0,1.391977516E1
1.454393304E1,9.488635274E0,-1.011642918E1,-6.585703202E0,1.535408172E1
1.455387404E1,8.642319805E0,-9.040019932E0,-6.292158358E0,1.400010388E1
1.456381604E1,6.090289085E0,-1.567809255E0,-3.158200457E0,7.037320309E0
1.457375804E1,2.082312777E0,4.087806589E0,-8.677018060E-1,4.668950164E0
1.458369904E1,8.652648327E-1,4.838662754E0,-1.589641735E0,5.166072137E0
1.459364104E1,-3.357398137E-1,4.016219128E0,-1.778340594E0,4.405137066E0
1.460358204E1,-2.416095235E0,3.152875398E0,-3.219175807E0,5.112849727E0
1.461352404E1,-3.036013238E0,2.635600296E0,-4.998134451E0,6.414445673E0
1.462346604E1,-3.240797933E0,2.364062617E0,-6.768575456E0,7.867984304E0
1.463340704E1,-3.920680887E0,2.394689164E0,-7.647014943E0,8.920936741E0
1.464334904E1,-4.545258535E0,2.564135626E0,-6.818768540E0,8.586604164E0
1.465329004E1,-4.706287639E0,2.079199719E0,-5.221412719E0,7.330441023E0
1.466323204E1,-4.761893198E0,1.773485066E0,-3.993581632E0,6.462938214E0
1.467317404E1,-4.499047990E0,1.297298348E0,-3.009569498E0,5.566140888E0
1.468311504E1,-4.151181343E0,4.423757780E-1,-8.440649483E-1,4.259160541E0
1.469305704E1,-3.197535262E0,-3.694855571E-1,1.799572418E0,3.687710972E0
1.470299804E1,-2.105492309E0,-2.043309510E-1,2.180272935E0,3.037834603E0
1.471294004E1,-2.021248842E0,8.823448420E-2,2.208991535E0,2.995475890E0
1.472288204E1,-1.549465516E0,4.385136920E-1,3.430743856E0,3.789873488E0
1.473282304E1,4.757791668E-2,5.040440226E-1,5.754913845E0,5.777140936E0
1.474276504E1,1.784160912E0,3.616163743E-1,7.209179528E0,7.435473490E0
1.475270604E1,2.396745045E0,3.349103862E-1,4.795326115E0,5.371378252E0
1.476264804E1,3.079544297E0,1.722689134E-1,1.539073699E0,3.447030244E0
1.477259004E1,3.269703351E0,1.683916247E-1,-9.946640074E-1,3.421793716E0
1.478253104E1,2.890816056E0,4.822724998E-1,-1.669108758E0,3.372733058E0
1.479247304E1,2.321368588E0,1.239368228E0,-1.482580240E0,3.020402273E0
1.480241404E1,1.589373348E0,1.590375999E0,-9.265136126E-1,2.431836946E0
1.481235604E1,7.625813670E-1,1.558745486E0,-1.623525473E-1,1.742864361E0
1.482229804E1,-1.653446406E-1,1.552581936E0,1.638179326E-1,1.569931793E0
1.483223904E1,-1.290154805E0,1.313260077E0,1.392771685E-1,1.846225766E0
1.484218104E1,-2.382355924E0,1.043634439E0,2.273444223E-1,2.610838577E0
1.485212204E1,-3.337493923E0,9.963059056E-1,6.622315250E-2,3.483658515E0
1.486206404E1,-3.877673446E0,1.026516130E0,-1.567194128E-1,4.014305381E0
1.487200604E1,-4.142137163E0,1.012957606E0,-2.328055756E-1,4.270548188E0
1.488194704E1,-3.984152412E0,1.035847117E0,-2.494553760E-2,4.116682156E0
1.489188904E1,-3.802522691E0,1.049581642E0,3.499137568E-1,3.960207075E0
1.490183004E1,-3.409229026E0,1.186223470E0,7.513767131E-1,3.687076842E0
1.491177204E1,-2.628977154E0,1.225758834E0,1.377644938E0,3.211216463E0
1.492171404E1,-1.540463874E0,9.705296248E-1,1.964075206E0,2.678161331E0
1.493165504E1,-4.911961549E-1,4.762001663E-1,2.447510132E0,2.541327627E0
1.494159704E1,2.889164802E-1,1.055703092E-1,2.875479394E0,2.891885124E0
1.495153804E1,1.033237212E0,8.319418430E-2,3.176147901E0,3.341020188E0
1.496148004E1,1.461312455E0,1.849918699E-1,3.167853041E0,3.493558210E0
1.497142204E1,1.290473478E0,4.456279993E-2,3.070353059E0,3.330822052E0
1.498136304E1,6.306511518E-1,-2.658506763E-1,3.015016179E0,3.091717972E0
1.499130504E1,-1.880500003E-1,-4.473500043E-1,2.930233599E0,2.970143729E0
1.500124604E1,-1.005198059E0,-4.263965070E-1,2.715121844E0,2.926452416E0
1.501118804E1,-1.851214442E0,-4.018270916E-1,2.615083001E0,3.229104988E0
1.502113004E1,-2.809715467E0,-4.264269125E-1,2.588214752E0,3.843851782E0
1.503107104E1,-3.683801117E0,-5.024418855E-1,2.485053788E0,4.471949335E0
1.504101304E1,-4.257089622E0,-4.528487259E-1,1.943598403E0,4.701644262E0
1.505095404E1,-4.548147645E0,-5.445628881E-1,9.135958707E-1,4.670851438E0
1.506089604E1,-4.605116190E0,-8.864758998E-1,-8.773250073E-2,4.690483092E0
1.507083804E1,-4.260657300E0,-1.406513227E0,-5.973761094E-1,4.526404567E0
1.508077904E1,-3.435481855E0,-2.088914284E0,1.278435230E-2,4.020729026E0
1.509072104E1,-2.762497154E0,-3.368444113E0,1.735423200E0,4.689296317E0
1.510066204E1,-3.052821060E0,-4.805864552E0,3.903811669E0,6.903317757E0
1.511060404E1,-3.395558821E0,-5.665737959E0,6.607524426E0,9.342900265E0
1.512054604E1,-4.119348224E0,-6.163636558E0,8.379597389E0,1.118825714E1
1.513048704E1,-4.524767261E0,-5.472842993E0,7.406146495E0,1.026043542E1
1.514042904E1,-5.028035358E0,-4.540412071E0,5.967508081E0,9.028157842E0
1.515037004E1,-4.493304270E0,-3.902226489E0,4.721802056E0,7.596878931E0
1.516031204E1,-3.984707898E0,-3.617719102E0,3.147805277E0,6.234939181E0
1.517025404E1,-3.389339138E0,-3.132203152E0,8.984515822E-1,4.701652010E0
1.518019504E1,-1.921187780E0,-2.705924174E0,-8.856661335E-1,3.434733267E0
1.519013704E1,-2.631531364E-1,-2.483654550E0,-1.428107579E0,2.877026373E0
1.520007804E1,1.505672941E0,-3.045763763E0,-1.442501085E0,3.691143086E0
1.521002004E1,3.287762184E0,-4.027248146E0,-2.265502535E0,5.671032494E0
1.521996204E1,4.297376353E0,-4.368092287E0,-3.526931723E0,7.070142935E0
1.522990304E1,4.880200497E0,-3.903490657E0,-4.090938358E0,7.469228397E0
1.523984504E1,5.491614894E0,-3.162509855E0,-3.776810730E0,7.377235391E0
1.524978604E1,5.874160207E0,-2.455296139E0,-2.926798652E0,7.007166875E0
1.525972804E1,5.881641135E0,-1.441074949E0,-2.009498570E0,6.380320051E0
1.526967004E1,5.244944839E0,-8.925657749E-2,-1.446619864E0,5.441518366E0
1.527961104E1,4.338740433E0,9.723229659E-1,-1.101042109E0,4.580652162E0
1.528955279E1,3.372390398E0,1.353788883E0,-4.786402094E-1,3.665359162E0
1.529949479E1,2.282890985E0,9.642842138E-1,-1.767944244E0,3.044184972E0
1.530943579E1,-2.603493235E-1,1.153047538E-1,-4.739096366E0,4.747642712E0
1.531937779E1,-1.885789028E0,-2.994938010E-1,-3.765635239E0,4.222073608E0
1.532931879E1,-2.554770141E0,-1.010317588E0,-3.919599152E-1,2.775108048E0
1.533926079E1,-3.974977254E0,-1.867445143E0,1.985520308E0,4.819759997E0
1.534920279E1,-4.394386046E0,-2.172885563E0,-1.028107157E-1,4.903328506E0
1.535914379E1,-3.728674112E0,-2.125304430E0,-3.679167784E0,5.652981968E0
1.536908579E1,-3.315587037E0,-2.516990111E0,-6.855920579E0,8.020723384E0
1.537902679E1,-3.480668553E0,-2.857962890E0,-7.898913578E0,9.092625648E0
1.538896879E1,-2.202706655E0,-2.043046385E0,-6.551050848E0,7.207095278E0
1.539891079E1,-1.347577386E0,-6.304625791E-1,-5.758399370E0,5.947487804E0
1.540885179E1,-7.005031595E-1,8.811122489E-1,-5.337636071E0,5.455036416E0
1.541879379E1,-5.234646723E-2,2.113506503E0,-4.969161497E0,5.400205170E0
1.542873479E1,5.831023251E-1,3.162150836E0,-4.408124079E0,5.456259170E0
1.543867679E1,1.067909958E0,4.022070436E0,-3.697850222E0,5.567008042E0
1.544861879E1,1.468089670E0,4.724392372E0,-3.228087256E0,5.907259762E0
1.545855979E1,1.876101654E0,5.252837995E0,-3.205605589E0,6.433348398E0
1.546850179E1,2.374916511E0,5.672483307E0,-3.465127531E0,7.058640387E0
1.547844279E1,2.757266235E0,6.021881924E0,-3.672829109E0,7.573325074E0
1.548838479E1,2.799593645E0,6.138698768E0,-3.913495828E0,7.799794660E0
1.549832579E1,2.559738812E0,6.066478053E0,-4.217244648E0,7.819179700E0
1.550826779E1,2.200812449E0,5.899631263E0,-4.526247483E0,7.754749561E0
1.551820979E1,1.810723205E0,5.710020093E0,-4.762434942E0,7.652701128E0
1.552815079E1,1.587435434E0,5.533172809E0,-4.817268084E0,7.506132452E0
1.553809279E1,1.420873988E0,5.415250842E0,-4.588882273E0,7.238899439E0
1.554803379E1,1.442753100E0,5.312981871E0,-4.085020098E0,6.855414070E0
1.555797579E1,1.624180215E0,5.095676533E0,-3.203274304E0,6.234167704E0
1.556791779E1,1.903693495E0,4.834465038E0,-1.929948663E0,5.542635020E0
1.557785879E1,2.144906344E0,4.169969909E0,-2.738487902E-1,4.697261482E0
1.558780079E1,2.193063719E0,2.917227929E0,1.457796524E0,3.930002287E0
1.559774279E1,1.918672161E0,1.289142652E0,3.932887534E0,4.561885136E0
1.560768379E1,1.293446787E0,-1.273701324E0,7.483477092E0,7.700503168E0
1.561762579E1,6.619871845E-1,-5.365561203E0,1.101790378E1,1.227280236E1
1.562756679E1,-1.177302519E-1,-1.031260093E1,1.226842674E1,1.602741068E1
1.563750879E1,-2.017910374E0,-1.404603058E1,1.330438027E1,1.945172157E1
1.564745079E1,-5.414771370E0,-1.472608983E1,1.427765751E1,2.121388636E1
1.565739179E1,-5.835579109E0,-9.927271757E0,1.018365696E1,1.537242912E1
1.566733379E1,-5.414783065E0,-4.357886556E0,5.353099617E0,8.773068243E0
1.567727479E1,-4.476936744E0,-1.387631398E0,2.409911220E0,5.270308871E0
1.568721679E1,-2.100041681E0,-5.255951053E-1,9.930782425E-1,2.381728295E0
1.569715879E1,2.446137352E-1,2.982781649E-2,-1.539795245E0,1.559389295E0
1.570709979E1,3.155030681E0,5.539967859E-1,-4.226607209E0,5.303332871E0
1.571704179E1,5.534144617E0,5.202700460E-1,-6.124009393E0,8.270485391E0
1.572698279E1,7.091941100E0,-3.147082561E-1,-7.720798618E0,1.048834597E1
1.573692479E1,8.340207621E0,-2.193454313E0,-8.069483290E0,1.181045577E1
1.574686679E1,9.648621526E0,-5.300221492E0,-6.808433002E0,1.294384043E1
1.575680779E1,1.035431731E1,-7.208611763E0,-6.703860812E0,1.428697729E1
1.576674979E1,9.921706377E0,-6.964851283E0,-5.895077451E0,1.347966428E1
1.577669079E1,7.548706875E0,-3.243997822E0,3.069350846E0,8.770827326E0
1.578663279E1,3.122337145E0,1.963686805E0,5.252302390E0,6.418078802E0
1.579657479E1,2.647501134E0,3.906732938E0,-6.516895799E-1,4.764086881E0
1.580651579E1,1.351072851E0,4.045902518E0,-1.897336695E0,4.668469939E0
1.581645779E1,-7.011079808E-1,3.457258056E0,-3.530338896E0,4.990739262E0
1.582639879E1,-2.200675917E0,2.335730519E0,-5.439744244E0,6.315807865E0
1.583634079E1,-3.263201832E0,1.732799554E0,-7.135425673E0,8.035258554E0
1.584628179E1,-4.240332379E0,1.848872048E0,-8.524410701E0,9.698676422E0
1.585622379E1,-4.916290389E0,1.853268569E0,-8.213121897E0,9.749865992E0
1.586616579E1,-5.158238232E0,1.873837904E0,-6.401008371E0,8.431583381E0
1.587610679E1,-5.187807602E0,2.031581165E0,-5.242182029E0,7.649911252E0
1.588604879E1,-4.985349514E0,1.665762396E0,-4.544452497E0,6.948418715E0
1.589599079E1,-5.016065522E0,6.264554822E-1,-4.256136233E0,6.608180947E0
1.590593179E1,-5.322099434E0,-8.921798587E-2,-3.355538723E0,6.292244620E0
1.591587379E1,-5.507518736E0,-5.806285143E-3,-1.766854323E0,5.783992612E0
1.592581479E1,-4.938675869E0,-2.850809991E-2,-1.149736186E0,5.070820974E0
1.593575679E1,-4.213364143E0,-9.627499044E-2,-1.005166118E0,4.332674140E0
1.594569779E1,-3.498516302E0,7.309838176E-2,-6.348702103E-1,3.556405471E0
1.595563979E1,-2.702612895E0,2.709915483E-1,2.601858938E-1,2.728598465E0
1.596558179E1,-1.365770413E0,2.921146148E-1,2.996517928E0,3.306021697E0
1.597552279E1,1.042657150E0,2.792232585E-1,7.642596202E0,7.718443902E0
1.598546479E1,3.279500361E0,3.537664872E-1,9.627433555E0,1.017682417E1
1.599540579E1,4.195456460E0,5.724541068E-1,7.689107294E0,8.777922852E0
1.600534779E1,4.478318734E0,8.528351140E-1,4.583804258E0,6.464822340E0
1.601528979E1,3.650969001E0,1.043561348E0,2.252625797E0,4.415078472E0
1.602523079E1,1.981261488E0,1.078414847E0,1.043214755E0,2.485291269E0
1.603517279E1,1.305165484E0,8.997005475E-1,-3.002077460E-2,1.585502842E0
1.604511379E1,3.495848510E-1,8.567948484E-1,-7.913609970E-1,1.217603880E0
1.605505579E1,-8.873904774E-1,7.295734692E-1,-8.334189228E-1,1.419269674E0
1.606499779E1,-1.692391786E0,5.084545773E-1,-1.020774237E0,2.040758697E0
1.607493879E1,-2.066838998E0,4.139752668E-1,-1.270852561E0,2.461354342E0
1.608488079E1,-2.218282176E0,4.078795445E-1,-8.815800261E-1,2.421636818E0
1.609482179E1,-2.489571347E0,6.300889421E-1,1.769507790E-1,2.574157949E0
1.610476379E1,-2.695233709E0,9.581434679E-1,1.413503719E0,3.190660812E0
1.611470579E1,-2.738668581E0,1.246381963E0,2.578203442E0,3.962436950E0
1.612464679E1,-2.816615182E0,1.517318548E0,3.452086194E0,4.706641663E0
1.613458879E1,-2.654419852E0,1.689219087E0,3.733544258E0,4.882495120E0
1.614452979E1,-2.347809989E0,1.473438703E0,3.634845597E0,4.571141637E0
1.615447179E1,-1.948945389E0,8.591039139E-1,3.717274965E0,4.284224648E0
1.616441379E1,-1.441591258E0,1.864478266E-1,3.898780725E0,4.160942116E0
1.617435479E1,-1.108592838E0,-2.281811589E-1,3.880962212E0,4.042636815E0
1.618429679E1,-1.113277116E0,-5.096649510E-1,3.747413853E0,3.942366661E0
1.619423779E1,-1.593798082E0,-6.457407689E-1,3.552851261E0,3.947141440E0
1.620417979E1,-2.588681945E0,-6.279734194E-1,3.286558243E0,4.230495232E0
1.621412179E1,-3.767263981E0,-5.604626369E-1,2.838864130E0,4.750320602E0
1.622406279E1,-4.900417829E0,-6.126823658E-1,2.145858124E0,5.384624562E0
1.623400479E1,-5.735665981E0,-6.103276920E-1,1.353255178E0,5.924665705E0
1.624394579E1,-6.302707320E0,-7.331402707E-1,6.407675658E-1,6.377475777E0
1.625388779E1,-6.337956090E0,-8.963249499E-1,1.220445469E-2,6.401033882E0
1.626382979E1,-5.779384443E0,-1.645311175E0,-1.635838978E-1,6.011247216E0
1.627377079E1,-5.078292761E0,-3.555671373E0,7.699999487E-1,6.246979766E0
1.628371279E1,-4.283368763E0,-5.991543646E0,2.856812743E0,7.899824192E0
1.629365358E1,-3.818508687E0,-7.608059623E0,5.538900157E0,1.015593397E1
1.630359558E1,-2.452448545E0,-6.961790265E0,5.653882145E0,9.297709980E0
1.631353758E1,-2.257941208E0,-6.929082695E0,5.983410169E0,9.429299165E0
1.632347858E1,-2.170694319E0,-6.660853372E0,5.387294719E0,8.837523740E0
1.633342058E1,-1.589380511E0,-6.371403333E0,2.991992183E0,7.216157430E0
1.634336158E1,-1.504403803E0,-6.091446249E0,8.047172070E-1,6.325861047E0
1.635330358E1,-9.786513343E-1,-4.817081850E0,-1.120066903E0,5.041486472E0
1.636324558E1,-3.611039389E-1,-3.902087325E0,-1.857201991E0,4.336574776E0
1.637318658E1,3.227206957E-1,-3.725283312E0,-1.940816005E0,4.212914806E0
